{
    "Name": "Galeota et al. 1996, CA4",
    "Type": "Rectangular",
    "fpc": 80.0,
    "fyt": 430.0,
    "fsut": 0.0,
    "fyl": 430.0,
    "fsul": 0.0,
    "Width": 250.0,
    "Depth": 250.0,
    "L_Inflection": 1140.0,
    "L_Measured": 1140.0,
    "TestConfiguration": "Double Ended",
    "AxLoad": 1500.0,
    "P_Delta": "Shear provided",
    "dlb": 10.0,
    "dlb_c": 10.0,
    "nlb": 12.0,
    "cc_per": 30.0,
    "nib_per": 2.0,
    "cc_par": 30.0,
    "nib_par": 2.0,
    "SubType": "RI: Rectangular and interlocking ties",
    "nsl": 4.0,
    "dtb_rcs": 8.0,
    "s_rcs": 50.0,
    "FailureType": "Flexure",
    "data": {
        "disp": [
            0.05,
            0.12,
            0.19,
            0.27,
            0.35,
            0.43,
            0.53,
            0.6,
            0.69,
            0.77,
            0.85,
            0.93,
            1.0,
            1.1,
            1.18,
            1.25,
            1.36,
            1.44,
            1.52,
            1.61,
            1.7,
            1.79,
            1.88,
            1.98,
            2.06,
            2.15,
            2.23,
            2.33,
            2.42,
            2.53,
            2.63,
            2.74,
            2.82,
            2.92,
            3.02,
            3.11,
            3.23,
            3.34,
            3.44,
            3.55,
            3.65,
            3.79,
            3.89,
            4.01,
            4.14,
            4.24,
            4.36,
            4.47,
            4.58,
            4.7,
            4.84,
            4.95,
            5.09,
            5.23,
            5.37,
            5.54,
            5.68,
            5.92,
            6.11,
            6.28,
            6.45,
            6.63,
            6.79,
            6.98,
            7.16,
            7.38,
            7.6,
            7.78,
            7.99,
            8.25,
            8.46,
            8.71,
            8.96,
            9.31,
            9.59,
            9.9,
            10.13,
            10.47,
            10.85,
            11.09,
            11.49,
            11.87,
            12.23,
            12.63,
            13.04,
            13.45,
            13.98,
            14.37,
            14.89,
            15.42,
            15.95,
            16.45,
            17.67,
            17.89,
            18.01,
            18.12,
            18.03,
            17.89,
            17.78,
            17.64,
            17.49,
            17.3,
            17.14,
            16.96,
            16.73,
            16.49,
            16.32,
            16.12,
            15.98,
            15.76,
            15.55,
            15.33,
            15.12,
            14.9,
            14.68,
            14.47,
            14.25,
            13.96,
            13.74,
            13.53,
            13.31,
            13.17,
            13.02,
            12.73,
            12.51,
            12.29,
            12.01,
            11.8,
            11.58,
            11.3,
            11.07,
            10.87,
            10.65,
            10.44,
            10.29,
            10.08,
            9.81,
            9.6,
            9.4,
            9.14,
            8.94,
            8.75,
            8.55,
            8.29,
            8.16,
            7.96,
            7.78,
            7.54,
            7.35,
            7.12,
            6.95,
            6.78,
            6.57,
            6.35,
            6.2,
            5.94,
            5.76,
            5.56,
            5.38,
            5.15,
            4.89,
            4.73,
            4.58,
            4.39,
            4.25,
            4.13,
            3.97,
            3.82,
            3.72,
            3.56,
            3.4,
            3.26,
            3.13,
            2.99,
            2.85,
            2.72,
            2.53,
            2.44,
            2.29,
            2.13,
            1.98,
            1.83,
            1.68,
            1.57,
            1.41,
            1.25,
            1.1,
            0.94,
            0.84,
            0.68,
            0.53,
            0.37,
            0.22,
            0.06,
            -0.09,
            -0.25,
            -0.35,
            -0.51,
            -0.67,
            -0.82,
            -0.98,
            -1.14,
            -1.36,
            -1.5,
            -1.67,
            -1.82,
            -1.98,
            -2.08,
            -2.23,
            -2.38,
            -2.54,
            -2.74,
            -2.9,
            -3.06,
            -3.22,
            -3.39,
            -3.55,
            -3.72,
            -3.89,
            -4.12,
            -4.28,
            -4.55,
            -4.72,
            -4.95,
            -5.18,
            -5.42,
            -5.66,
            -5.84,
            -6.08,
            -6.27,
            -6.58,
            -6.89,
            -7.14,
            -7.4,
            -7.66,
            -8.05,
            -8.31,
            -8.72,
            -9.05,
            -9.47,
            -9.81,
            -10.37,
            -10.73,
            -11.24,
            -11.66,
            -12.17,
            -12.68,
            -13.13,
            -13.66,
            -14.18,
            -14.72,
            -15.27,
            -15.81,
            -16.37,
            -16.87,
            -17.41,
            -18.04,
            -18.34,
            -18.64,
            -18.55,
            -18.41,
            -18.14,
            -17.8,
            -17.44,
            -17.08,
            -16.89,
            -16.71,
            -16.35,
            -16.14,
            -15.91,
            -15.69,
            -15.47,
            -15.24,
            -15.01,
            -14.78,
            -14.55,
            -14.34,
            -14.1,
            -13.87,
            -13.65,
            -13.42,
            -13.2,
            -12.97,
            -12.74,
            -12.52,
            -12.08,
            -11.85,
            -11.63,
            -11.18,
            -10.96,
            -10.74,
            -10.51,
            -10.29,
            -10.08,
            -9.86,
            -9.63,
            -9.42,
            -9.19,
            -8.98,
            -8.75,
            -8.52,
            -8.03,
            -7.81,
            -7.59,
            -7.36,
            -7.16,
            -6.95,
            -6.74,
            -6.53,
            -6.33,
            -6.13,
            -5.94,
            -5.74,
            -5.54,
            -5.34,
            -5.15,
            -4.94,
            -4.75,
            -4.56,
            -4.37,
            -4.18,
            -3.99,
            -3.8,
            -3.62,
            -3.43,
            -3.25,
            -3.08,
            -2.9,
            -2.73,
            -2.56,
            -2.39,
            -2.29,
            -2.09,
            -1.93,
            -1.79,
            -1.63,
            -1.49,
            -1.24,
            -1.08,
            -0.89,
            -0.72,
            -0.55,
            -0.42,
            -0.28,
            -0.11,
            0.04,
            0.21,
            0.36,
            0.5,
            0.65,
            0.82,
            0.99,
            1.16,
            1.34,
            1.53,
            1.74,
            1.95,
            2.16,
            2.38,
            2.61,
            2.83,
            3.05,
            3.27,
            3.5,
            3.73,
            3.96,
            4.2,
            4.43,
            4.67,
            4.91,
            5.15,
            5.39,
            5.64,
            5.89,
            6.15,
            6.4,
            6.66,
            6.91,
            7.17,
            7.43,
            7.97,
            8.5,
            9.04,
            9.58,
            10.13,
            10.69,
            11.24,
            11.81,
            12.37,
            12.94,
            13.52,
            14.11,
            14.7,
            15.31,
            15.95,
            16.58,
            17.23,
            17.89,
            18.58,
            19.27,
            19.99,
            20.68,
            21.24,
            21.87,
            22.4,
            23.0,
            23.58,
            24.13,
            24.69,
            25.23,
            25.78,
            26.32,
            26.87,
            27.42,
            27.97,
            28.52,
            29.08,
            29.65,
            30.2,
            30.75,
            31.32,
            31.89,
            32.43,
            33.01,
            33.58,
            34.14,
            34.72,
            35.29,
            35.86,
            36.41,
            36.92,
            37.48,
            38.02,
            38.49,
            39.02,
            39.2,
            39.27,
            39.03,
            38.86,
            38.6,
            38.27,
            38.03,
            37.8,
            37.56,
            37.33,
            37.1,
            36.87,
            36.63,
            36.41,
            36.19,
            35.83,
            35.6,
            35.35,
            35.13,
            34.9,
            34.67,
            34.45,
            34.1,
            33.87,
            33.52,
            33.3,
            32.94,
            32.72,
            32.38,
            32.03,
            31.82,
            31.46,
            31.23,
            30.89,
            30.55,
            30.2,
            29.87,
            29.57,
            29.27,
            28.81,
            28.51,
            28.15,
            27.79,
            27.42,
            27.13,
            26.75,
            26.32,
            25.82,
            25.47,
            25.05,
            24.62,
            24.26,
            23.67,
            23.08,
            22.53,
            21.91,
            21.34,
            20.78,
            20.2,
            19.61,
            19.0,
            18.4,
            17.8,
            17.18,
            16.57,
            15.95,
            15.34,
            14.71,
            14.1,
            13.48,
            12.97,
            12.39,
            11.78,
            11.17,
            10.57,
            9.97,
            9.38,
            8.8,
            8.21,
            7.62,
            7.07,
            6.52,
            5.98,
            5.57,
            5.17,
            4.78,
            4.39,
            4.01,
            3.63,
            3.25,
            2.88,
            2.39,
            2.03,
            1.66,
            1.31,
            0.95,
            0.58,
            0.23,
            -0.13,
            -0.49,
            -0.84,
            -1.08,
            -1.29,
            -1.5,
            -1.72,
            -2.08,
            -2.43,
            -2.78,
            -3.14,
            -3.38,
            -3.73,
            -4.09,
            -4.33,
            -4.69,
            -5.06,
            -5.42,
            -5.79,
            -6.16,
            -6.52,
            -6.89,
            -7.27,
            -7.76,
            -8.14,
            -8.52,
            -8.9,
            -9.42,
            -9.81,
            -10.33,
            -10.86,
            -11.39,
            -11.93,
            -12.48,
            -13.05,
            -13.6,
            -14.16,
            -14.74,
            -15.33,
            -15.91,
            -16.52,
            -17.12,
            -17.75,
            -18.37,
            -18.87,
            -19.52,
            -20.18,
            -20.7,
            -21.2,
            -21.74,
            -22.32,
            -22.88,
            -23.09,
            -23.68,
            -24.27,
            -24.79,
            -25.32,
            -25.88,
            -26.44,
            -26.98,
            -27.55,
            -28.11,
            -28.67,
            -29.23,
            -29.82,
            -30.4,
            -30.98,
            -31.57,
            -32.16,
            -32.75,
            -33.36,
            -33.93,
            -34.5,
            -35.08,
            -35.68,
            -36.27,
            -36.85,
            -37.4,
            -37.72,
            -37.82,
            -38.33,
            -38.83,
            -39.28,
            -39.8,
            -39.81,
            -39.59,
            -39.28,
            -39.06,
            -38.83,
            -38.62,
            -38.28,
            -38.05,
            -37.71,
            -37.37,
            -37.02,
            -36.67,
            -36.45,
            -36.11,
            -35.84,
            -35.5,
            -35.27,
            -34.93,
            -34.57,
            -34.34,
            -34.0,
            -33.74,
            -33.39,
            -33.16,
            -32.79,
            -32.43,
            -32.19,
            -31.8,
            -31.44,
            -31.04,
            -30.65,
            -30.25,
            -29.86,
            -29.49,
            -29.1,
            -28.75,
            -28.36,
            -27.99,
            -27.62,
            -27.37,
            -26.99,
            -26.59,
            -26.21,
            -25.83,
            -25.44,
            -25.06,
            -24.66,
            -24.26,
            -23.86,
            -23.45,
            -23.05,
            -22.51,
            -21.96,
            -21.4,
            -20.84,
            -20.25,
            -19.61,
            -19.1,
            -18.59,
            -17.97,
            -17.36,
            -16.74,
            -16.12,
            -15.52,
            -14.91,
            -14.31,
            -13.71,
            -13.2,
            -12.64,
            -12.12,
            -11.61,
            -11.05,
            -10.49,
            -9.92,
            -9.36,
            -8.83,
            -8.22,
            -7.62,
            -7.1,
            -6.64,
            -6.25,
            -5.85,
            -5.45,
            -4.97,
            -4.61,
            -4.11,
            -3.74,
            -3.36,
            -2.92,
            -2.45,
            -2.09,
            -1.72,
            -1.22,
            -0.72,
            -0.34,
            0.07,
            0.47,
            0.87,
            1.28,
            1.69,
            2.09,
            2.5,
            3.05,
            3.46,
            3.87,
            4.28,
            4.7,
            5.12,
            5.69,
            6.12,
            6.55,
            7.13,
            7.73,
            8.31,
            8.91,
            9.51,
            10.12,
            10.73,
            11.35,
            11.98,
            12.6,
            13.23,
            13.87,
            14.5,
            15.15,
            15.78,
            16.42,
            16.92,
            17.56,
            18.21,
            18.87,
            19.52,
            20.02,
            20.52,
            21.19,
            21.85,
            22.36,
            22.91,
            23.56,
            24.08,
            24.6,
            25.11,
            25.63,
            26.18,
            26.68,
            27.18,
            27.7,
            28.23,
            28.76,
            29.29,
            29.82,
            30.35,
            30.89,
            31.41,
            31.96,
            32.5,
            33.04,
            33.57,
            34.12,
            34.68,
            35.22,
            35.75,
            36.28,
            36.84,
            37.36,
            37.9,
            38.47,
            39.01,
            39.2,
            39.77,
            39.79,
            39.63,
            39.44,
            39.23,
            39.04,
            38.83,
            38.64,
            38.32,
            38.02,
            37.81,
            37.52,
            37.29,
            36.99,
            36.79,
            36.5,
            36.3,
            35.99,
            35.79,
            35.49,
            35.28,
            34.98,
            34.67,
            34.39,
            34.08,
            33.8,
            33.48,
            33.2,
            32.9,
            32.6,
            32.32,
            31.93,
            31.64,
            31.35,
            31.03,
            30.7,
            30.36,
            30.06,
            29.76,
            29.41,
            29.09,
            28.77,
            28.48,
            28.11,
            27.72,
            27.43,
            27.12,
            26.68,
            26.29,
            25.82,
            25.42,
            24.88,
            24.36,
            23.94,
            23.42,
            22.88,
            22.26,
            21.67,
            21.12,
            20.56,
            19.98,
            19.38,
            18.8,
            18.2,
            17.61,
            17.0,
            16.39,
            15.78,
            15.18,
            14.68,
            14.08,
            13.47,
            12.86,
            12.27,
            11.68,
            11.07,
            10.48,
            9.89,
            9.31,
            8.73,
            8.15,
            7.58,
            7.01,
            6.46,
            5.9,
            5.5,
            5.0,
            4.6,
            4.08,
            3.56,
            3.04,
            2.53,
            2.12,
            1.61,
            1.2,
            0.69,
            0.17,
            -0.24,
            -0.82,
            -1.22,
            -1.61,
            -2.02,
            -2.43,
            -2.94,
            -3.35,
            -3.76,
            -4.28,
            -4.81,
            -5.33,
            -5.75,
            -6.28,
            -6.82,
            -7.35,
            -7.9,
            -8.44,
            -8.99,
            -9.53,
            -10.09,
            -10.64,
            -11.19,
            -11.77,
            -12.32,
            -12.9,
            -13.47,
            -14.05,
            -14.63,
            -15.22,
            -15.8,
            -16.39,
            -16.99,
            -17.58,
            -18.19,
            -18.79,
            -19.4,
            -20.01,
            -20.51,
            -21.12,
            -21.72,
            -22.24,
            -22.74,
            -23.25,
            -23.75,
            -24.35,
            -24.91,
            -25.52,
            -26.04,
            -26.55,
            -27.08,
            -27.6,
            -28.11,
            -28.66,
            -29.19,
            -29.7,
            -30.26,
            -30.78,
            -31.33,
            -31.88,
            -32.42,
            -32.97,
            -33.52,
            -34.07,
            -34.64,
            -35.2,
            -35.76,
            -36.31,
            -36.89,
            -37.46,
            -38.02,
            -38.58,
            -38.7,
            -38.84,
            -39.35,
            -39.86,
            -40.13,
            -40.05,
            -39.84,
            -39.59,
            -39.35,
            -39.03,
            -38.86,
            -38.59,
            -38.33,
            -38.08,
            -37.82,
            -37.51,
            -37.25,
            -37.0,
            -36.74,
            -36.49,
            -36.21,
            -35.96,
            -35.7,
            -35.44,
            -35.1,
            -34.77,
            -34.51,
            -34.26,
            -33.98,
            -33.72,
            -33.46,
            -33.11,
            -32.77,
            -32.5,
            -32.06,
            -31.7,
            -31.24,
            -30.9,
            -30.56,
            -30.21,
            -29.84,
            -29.51,
            -29.16,
            -28.82,
            -28.55,
            -28.17,
            -27.83,
            -27.49,
            -27.15,
            -26.81,
            -26.46,
            -26.11,
            -25.77,
            -25.42,
            -25.06,
            -24.62,
            -24.17,
            -23.78,
            -23.3,
            -22.89,
            -22.49,
            -22.1,
            -21.6,
            -21.09,
            -20.57,
            -19.62,
            -19.11,
            -18.58,
            -18.01,
            -17.51,
            -16.96,
            -16.41,
            -15.85,
            -15.3,
            -14.74,
            -14.2,
            -13.68,
            -13.18,
            -12.67,
            -12.13,
            -11.51,
            -11.22,
            -10.67,
            -10.16,
            -9.68,
            -9.13,
            -8.55,
            -8.04,
            -7.52,
            -7.0,
            -6.48,
            -5.96,
            -5.44,
            -4.93,
            -4.36,
            -3.79,
            -3.29,
            -2.78,
            -2.27,
            -1.68,
            -1.17,
            -0.65,
            -0.11,
            0.43,
            0.96,
            1.51,
            2.04,
            2.58,
            3.12,
            3.66,
            4.21,
            4.75,
            5.3,
            5.84,
            6.4,
            6.96,
            7.52,
            8.09,
            8.66,
            9.23,
            9.8,
            10.38,
            10.96,
            11.55,
            12.13,
            12.72,
            13.31,
            13.9,
            14.5,
            15.09,
            15.69,
            16.29,
            16.9,
            17.49,
            18.1,
            18.71,
            19.31,
            19.93,
            20.66,
            21.27,
            21.89,
            22.39,
            23.0,
            23.5,
            24.12,
            24.63,
            25.13,
            25.63,
            26.13,
            26.65,
            27.15,
            27.66,
            28.16,
            28.68,
            29.19,
            29.71,
            30.22,
            30.73,
            31.29,
            31.81,
            32.33,
            32.86,
            33.39,
            33.92,
            34.46,
            34.98,
            35.53,
            36.06,
            36.58,
            37.12,
            37.65,
            38.2,
            38.75,
            39.29,
            39.82,
            39.9,
            39.66,
            39.42,
            39.19,
            38.95,
            38.71,
            38.44,
            38.2,
            37.97,
            37.73,
            37.48,
            37.22,
            36.92,
            36.64,
            36.39,
            36.11,
            35.85,
            35.56,
            35.28,
            35.01,
            34.75,
            34.46,
            34.22,
            33.95,
            33.69,
            33.42,
            33.04,
            32.73,
            32.48,
            32.23,
            31.89,
            31.58,
            31.28,
            30.99,
            30.72,
            30.41,
            30.01,
            29.7,
            29.36,
            28.99,
            28.67,
            28.37,
            27.94,
            27.61,
            27.26,
            26.91,
            26.53,
            25.95,
            25.56,
            25.0,
            24.41,
            23.82,
            23.21,
            22.61,
            22.23,
            21.82,
            21.21,
            20.55,
            19.9,
            19.2,
            18.55,
            17.86,
            17.18,
            16.5,
            15.82,
            15.13,
            14.46,
            13.77,
            12.86,
            12.18,
            11.5,
            10.83,
            10.16,
            9.49,
            8.82,
            8.17,
            7.51,
            6.85,
            6.21,
            5.57,
            4.93,
            4.3,
            3.62,
            3.02,
            2.4,
            1.79,
            1.16,
            0.54,
            -0.08,
            -0.7,
            -1.31,
            -1.94,
            -2.56,
            -3.19,
            -3.81,
            -4.44,
            -5.09,
            -5.71,
            -6.33,
            -6.98,
            -7.61,
            -8.26,
            -8.91,
            -9.56,
            -10.21,
            -10.86,
            -11.51,
            -12.17,
            -12.84,
            -13.5,
            -14.17,
            -14.85,
            -15.74,
            -16.43,
            -17.11,
            -17.81,
            -18.5,
            -19.18,
            -19.88,
            -20.58,
            -21.27,
            -21.97,
            -22.69,
            -23.4,
            -24.12,
            -24.83,
            -25.55,
            -26.28,
            -27.0,
            -27.74,
            -28.49,
            -29.19,
            -29.7,
            -30.21,
            -30.95,
            -31.69,
            -32.2,
            -32.71,
            -33.22,
            -33.73,
            -34.25,
            -34.76,
            -35.27,
            -35.81,
            -36.33,
            -36.85,
            -37.36,
            -38.05,
            -38.7,
            -39.32,
            -39.84,
            -39.94,
            -40.39,
            -40.52,
            -40.47,
            -40.3,
            -40.06,
            -39.84,
            -39.55,
            -39.33,
            -39.07,
            -38.86,
            -38.62,
            -38.32,
            -38.05,
            -37.73,
            -37.51,
            -37.3,
            -37.04,
            -36.69,
            -36.45,
            -36.22,
            -35.93,
            -35.62,
            -35.38,
            -35.11,
            -34.87,
            -34.56,
            -34.3,
            -34.05,
            -33.8,
            -33.42,
            -33.04,
            -32.78,
            -32.35,
            -32.14,
            -31.85,
            -31.55,
            -31.29,
            -30.87,
            -30.62,
            -30.27,
            -29.95,
            -29.7,
            -29.33,
            -29.03,
            -28.76,
            -28.4,
            -28.13,
            -27.89,
            -27.47,
            -27.22,
            -26.81,
            -26.5,
            -26.24,
            -25.77,
            -25.51,
            -25.12,
            -24.8,
            -24.39,
            -23.85,
            -23.45,
            -23.07,
            -22.66,
            -22.14,
            -21.54,
            -20.92,
            -20.42,
            -19.83,
            -19.24,
            -18.68,
            -18.17,
            -17.62,
            -17.13,
            -16.56,
            -16.03,
            -15.46,
            -14.96,
            -14.36,
            -13.76,
            -13.14,
            -12.63,
            -12.11,
            -11.61,
            -11.11,
            -10.59,
            -10.07,
            -9.57,
            -9.06,
            -8.54,
            -8.04,
            -7.54,
            -6.94,
            -6.34,
            -5.73,
            -5.12,
            -4.5,
            -3.9,
            -3.28,
            -2.66,
            -2.16,
            -1.65,
            -1.13,
            -0.61,
            -0.07,
            0.43,
            0.95,
            1.47,
            1.99,
            2.51,
            3.03,
            3.55,
            4.07,
            4.59,
            5.11,
            5.64,
            6.16,
            6.69,
            7.22,
            7.75,
            8.28,
            8.82,
            9.36,
            9.9,
            10.44,
            10.97,
            11.52,
            12.07,
            12.62,
            13.17,
            13.72,
            14.27,
            14.82,
            15.38,
            15.93,
            16.49,
            17.04,
            17.59,
            18.14,
            18.71,
            19.26,
            19.83,
            20.42,
            20.95,
            21.52,
            22.09,
            22.66,
            23.23,
            23.81,
            24.39,
            24.96,
            25.54,
            26.12,
            26.7,
            27.28,
            27.87,
            28.44,
            29.03,
            29.62,
            30.2,
            30.81,
            31.4,
            32.0,
            32.59,
            33.19,
            33.79,
            34.4,
            35.16,
            35.77,
            36.36,
            36.99,
            37.59,
            38.21,
            38.83,
            39.45,
            39.65,
            39.99,
            39.83,
            39.67,
            39.34,
            38.93,
            38.72,
            38.52,
            38.3,
            37.89,
            37.48,
            37.07,
            36.67,
            36.27,
            35.85,
            35.43,
            35.03,
            34.65,
            34.28,
            34.02,
            33.64,
            33.31,
            32.99,
            32.72,
            32.41,
            32.11,
            31.77,
            31.48,
            31.1,
            30.84,
            30.48,
            30.16,
            29.88,
            29.55,
            29.17,
            28.8,
            28.4,
            27.99,
            27.59,
            26.93,
            26.51,
            26.08,
            25.65,
            25.21,
            24.77,
            24.33,
            23.88,
            23.42,
            22.74,
            22.12,
            21.65,
            20.93,
            20.19,
            19.68,
            18.93,
            18.42,
            17.9,
            17.39,
            16.85,
            16.34,
            15.82,
            15.3,
            14.79,
            14.26,
            13.75,
            13.22,
            12.71,
            12.18,
            11.67,
            11.15,
            10.62,
            10.1,
            9.59,
            9.08,
            8.57,
            8.07,
            7.55,
            7.04,
            6.5,
            5.81,
            5.08,
            4.35,
            3.85,
            3.12,
            2.38,
            1.65,
            0.92,
            0.42,
            -0.11,
            -0.83,
            -1.54,
            -2.27,
            -3.0,
            -3.5,
            -4.24,
            -4.97,
            -5.47,
            -6.22,
            -6.95,
            -7.45,
            -8.2,
            -8.94,
            -9.45,
            -10.2,
            -10.71,
            -11.22,
            -11.73,
            -12.23,
            -12.74,
            -13.24,
            -13.76,
            -14.28,
            -14.79,
            -15.31,
            -15.82,
            -16.34,
            -16.87,
            -17.37,
            -17.9,
            -18.42,
            -18.93,
            -19.47,
            -20.0,
            -20.53,
            -21.03,
            -21.57,
            -22.11,
            -22.64,
            -23.17,
            -23.71,
            -24.23,
            -24.78,
            -25.33,
            -25.86,
            -26.42,
            -26.98,
            -27.52,
            -28.07,
            -28.64,
            -29.2,
            -29.74,
            -30.3,
            -30.86,
            -31.42,
            -31.97,
            -32.54,
            -33.11,
            -33.7,
            -34.27,
            -34.83,
            -35.38,
            -35.94,
            -36.46,
            -36.98,
            -37.51,
            -38.18,
            -38.77,
            -39.3,
            -39.38,
            -39.91,
            -40.44,
            -40.61,
            -40.57,
            -40.36,
            -40.13,
            -39.8,
            -39.46,
            -39.24,
            -39.0,
            -38.68,
            -38.33,
            -38.1,
            -37.76,
            -37.52,
            -37.27,
            -37.06,
            -36.72,
            -36.49,
            -36.12,
            -35.77,
            -35.41,
            -35.03,
            -34.68,
            -34.32,
            -34.06,
            -33.65,
            -33.22,
            -32.79,
            -32.39,
            -32.13,
            -31.72,
            -31.56,
            -31.03,
            -30.75,
            -30.35,
            -29.96,
            -29.55,
            -29.13,
            -28.74,
            -28.33,
            -27.94,
            -27.55,
            -27.01,
            -26.6,
            -26.22,
            -25.78,
            -25.34,
            -25.06,
            -24.73,
            -24.38,
            -23.86,
            -23.38,
            -22.9,
            -22.4,
            -21.96,
            -21.45,
            -20.89,
            -20.44,
            -19.91,
            -19.33,
            -18.69,
            -18.06,
            -17.39,
            -16.75,
            -16.1,
            -15.44,
            -14.79,
            -14.12,
            -13.45,
            -12.78,
            -12.13,
            -11.45,
            -10.8,
            -10.17,
            -9.54,
            -8.88,
            -8.23,
            -7.58,
            -6.93,
            -6.29,
            -5.64,
            -4.99,
            -4.34,
            -3.67,
            -3.01,
            -2.33,
            -1.66,
            -0.98,
            -0.3,
            0.39,
            1.06,
            1.74,
            2.41,
            3.09,
            3.76,
            4.45,
            5.12,
            5.8,
            6.48,
            7.17,
            7.86,
            8.54,
            9.24,
            9.93,
            10.63,
            11.32,
            12.02,
            12.72,
            13.43,
            14.13,
            14.82,
            15.55,
            16.24,
            16.95,
            17.64,
            18.35,
            19.07,
            19.79,
            20.5,
            21.21,
            21.93,
            22.65,
            23.37,
            24.09,
            24.84,
            25.56,
            26.28,
            27.03,
            27.77,
            28.5,
            29.24,
            29.96,
            30.46,
            30.97,
            31.47,
            32.25,
            32.75,
            33.25,
            33.99,
            34.51,
            35.02,
            35.76,
            36.3,
            36.81,
            37.31,
            37.83,
            38.33,
            38.86,
            39.61,
            40.12,
            40.67,
            41.18,
            41.69,
            42.2,
            42.72,
            43.24,
            43.89,
            44.39,
            44.91,
            45.46,
            45.97,
            46.53,
            47.0,
            47.56,
            48.11,
            48.64,
            49.19,
            49.72,
            50.25,
            50.78,
            51.32,
            51.87,
            52.42,
            52.94,
            53.52,
            54.04,
            54.58,
            55.13,
            55.66,
            56.23,
            56.76,
            57.3,
            57.8,
            58.31,
            58.83,
            59.35,
            59.67,
            60.2,
            60.72,
            60.92,
            60.65,
            60.39,
            60.15,
            59.92,
            59.63,
            59.32,
            59.1,
            58.86,
            58.54,
            58.32,
            57.99,
            57.72,
            57.46,
            56.97,
            56.72,
            56.46,
            56.07,
            55.74,
            55.46,
            55.12,
            54.77,
            54.43,
            54.07,
            53.69,
            53.32,
            52.94,
            52.57,
            52.16,
            51.76,
            51.35,
            50.93,
            50.53,
            50.1,
            49.66,
            49.25,
            48.62,
            48.19,
            47.54,
            47.14,
            46.69,
            46.27,
            45.58,
            45.15,
            44.47,
            43.81,
            43.11,
            42.45,
            41.77,
            41.12,
            40.41,
            39.69,
            39.19,
            38.69,
            37.94,
            37.42,
            36.66,
            36.15,
            35.63,
            35.11,
            34.59,
            34.06,
            33.52,
            33.0,
            32.47,
            31.94,
            31.4,
            30.88,
            30.33,
            29.8,
            29.28,
            28.73,
            28.19,
            27.66,
            27.12,
            26.59,
            26.05,
            25.51,
            24.96,
            24.44,
            23.91,
            23.38,
            22.83,
            22.3,
            21.76,
            21.23,
            20.7,
            20.17,
            19.63,
            19.11,
            18.57,
            18.04,
            17.51,
            16.99,
            16.46,
            15.94,
            15.42,
            14.9,
            14.37,
            13.84,
            13.34,
            12.82,
            12.31,
            11.78,
            11.27,
            10.76,
            10.25,
            9.74,
            9.23,
            8.73,
            8.22,
            7.72,
            7.21,
            6.7,
            5.95,
            5.45,
            4.95,
            4.2,
            3.69,
            2.96,
            2.45,
            1.95,
            1.21,
            0.71,
            0.21,
            -0.54,
            -1.28,
            -1.79,
            -2.29,
            -2.8,
            -3.31,
            -3.82,
            -4.33,
            -5.06,
            -5.58,
            -6.08,
            -6.83,
            -7.59,
            -8.11,
            -8.62,
            -9.13,
            -9.64,
            -10.14,
            -10.66,
            -11.16,
            -11.69,
            -12.2,
            -12.72,
            -13.24,
            -13.75,
            -14.28,
            -14.8,
            -15.31,
            -15.85,
            -16.37,
            -16.89,
            -17.41,
            -17.96,
            -18.48,
            -19.01,
            -19.55,
            -20.08,
            -20.62,
            -21.16,
            -21.71,
            -22.25,
            -22.79,
            -23.33,
            -23.9,
            -24.45,
            -25.0,
            -25.54,
            -26.09,
            -26.65,
            -27.22,
            -27.77,
            -28.33,
            -28.9,
            -29.46,
            -30.0,
            -30.56,
            -31.11,
            -31.69,
            -32.27,
            -32.86,
            -33.39,
            -34.0,
            -34.56,
            -35.13,
            -35.67,
            -36.24,
            -36.83,
            -37.41,
            -37.97,
            -38.52,
            -39.1,
            -39.66,
            -40.23,
            -40.81,
            -41.36,
            -41.93,
            -42.49,
            -43.06,
            -43.62,
            -44.21,
            -44.79,
            -45.34,
            -45.91,
            -46.48,
            -47.0,
            -47.52,
            -48.08,
            -48.64,
            -49.19,
            -49.86,
            -50.56,
            -51.07,
            -51.68,
            -56.67,
            -61.08,
            -61.6,
            -62.04,
            -62.05,
            -61.87,
            -61.61,
            -61.33,
            -60.81,
            -60.57,
            -60.3,
            -60.02,
            -59.75,
            -59.47,
            -58.91,
            -58.62,
            -58.03,
            -57.48,
            -57.19,
            -56.93,
            -56.43,
            -56.16,
            -55.89,
            -55.46,
            -55.12,
            -54.7,
            -54.26,
            -53.8,
            -53.3,
            -52.88,
            -52.46,
            -52.16,
            -51.71,
            -51.31,
            -51.06,
            -50.52,
            -49.99,
            -49.45,
            -48.91,
            -48.35,
            -47.82,
            -47.22,
            -46.61,
            -46.0,
            -45.34,
            -44.71,
            -44.02,
            -43.33,
            -42.61,
            -41.86,
            -41.09,
            -40.34,
            -39.59,
            -38.82,
            -38.04,
            -37.27,
            -36.49,
            -35.68,
            -34.91,
            -34.11,
            -33.34,
            -32.56,
            -31.77,
            -30.97,
            -30.2,
            -29.39,
            -28.62,
            -27.81,
            -27.01,
            -26.21,
            -25.42,
            -24.62,
            -24.08,
            -23.28,
            -22.48,
            -21.7,
            -20.91,
            -20.11,
            -19.31,
            -18.53,
            -17.73,
            -16.95,
            -16.16,
            -15.37,
            -14.58,
            -13.79,
            -12.99,
            -12.22,
            -11.4,
            -10.6,
            -9.82,
            -9.03,
            -8.24,
            -7.45,
            -6.67,
            -5.89,
            -5.08,
            -4.3,
            -3.46,
            -2.72,
            -1.95,
            -1.18,
            -0.4,
            0.37,
            1.15,
            1.93,
            2.7,
            3.48,
            4.25,
            5.03,
            5.8,
            6.57,
            7.35,
            8.12,
            8.89,
            9.65,
            10.43,
            11.21,
            11.98,
            12.75,
            13.52,
            14.29,
            15.07,
            15.84,
            16.63,
            17.4,
            18.17,
            18.91,
            19.65,
            20.43,
            21.21,
            21.99,
            22.76,
            23.55,
            24.34,
            25.12,
            25.92,
            26.7,
            27.54,
            28.33,
            29.14,
            29.83,
            30.41,
            31.22,
            32.02,
            32.84,
            33.63,
            34.44,
            35.28,
            36.09,
            36.94,
            37.48,
            38.3,
            39.11,
            39.91,
            40.74,
            41.56,
            42.22,
            42.49,
            42.56
        ],
        "force": [
            1.067328,
            2.51136,
            3.892608,
            5.085504,
            6.59232,
            7.973568,
            9.857086,
            10.9872,
            12.18009,
            13.56135,
            15.06816,
            16.76333,
            18.01901,
            19.52583,
            21.09543,
            22.35111,
            23.92071,
            25.1136,
            26.49484,
            27.75052,
            29.44569,
            30.88973,
            32.20819,
            33.77779,
            35.41017,
            36.91699,
            38.04711,
            39.6167,
            41.31187,
            42.94425,
            44.63942,
            46.20903,
            47.33914,
            49.15987,
            50.79225,
            52.04793,
            53.80589,
            55.62663,
            57.13344,
            58.70304,
            60.20986,
            62.34451,
            63.78854,
            65.16978,
            67.05331,
            68.56013,
            69.94137,
            71.57376,
            73.08057,
            74.33626,
            75.84308,
            77.22432,
            78.73113,
            80.36352,
            81.74477,
            83.25159,
            84.69561,
            86.45357,
            88.08595,
            89.65556,
            90.91122,
            92.41805,
            93.79929,
            95.05497,
            96.49901,
            98.19414,
            99.38705,
            100.8939,
            102.3379,
            104.0331,
            105.6027,
            107.0467,
            108.3652,
            110.2487,
            111.5671,
            113.1368,
            114.3297,
            116.0877,
            117.7828,
            118.8501,
            120.8592,
            122.1149,
            123.6217,
            125.1285,
            126.5725,
            127.891,
            129.4607,
            130.7791,
            132.0347,
            133.2905,
            134.3577,
            134.7973,
            119.4779,
            114.3297,
            112.8229,
            114.1413,
            112.2577,
            110.6882,
            109.2441,
            107.9257,
            106.4816,
            104.9748,
            103.468,
            101.9612,
            100.2032,
            98.44528,
            96.81293,
            95.30611,
            94.176,
            92.66917,
            90.97402,
            89.21606,
            87.64645,
            86.01408,
            84.31892,
            82.74931,
            80.8658,
            78.8567,
            77.16153,
            75.46637,
            73.95956,
            73.08057,
            71.57376,
            69.62745,
            68.30899,
            66.23712,
            64.29081,
            62.84679,
            61.02605,
            58.95417,
            57.57293,
            55.6894,
            54.11981,
            52.86412,
            51.42009,
            49.91328,
            47.96697,
            46.2718,
            44.70221,
            42.63034,
            41.12352,
            39.49113,
            37.98432,
            36.28915,
            35.03347,
            33.71501,
            32.01984,
            30.07353,
            28.44115,
            26.49484,
            24.98803,
            23.79513,
            21.78605,
            20.21645,
            18.96077,
            17.20281,
            16.07271,
            14.69145,
            13.31021,
            11.86617,
            10.04544,
            8.413056,
            7.157376,
            5.33664,
            4.520448,
            3.013632,
            1.506816,
            0.0,
            -1.318464,
            -3.201984,
            -4.959936,
            -6.466752,
            -8.099136,
            -9.480384,
            -11.23833,
            -12.87072,
            -14.62867,
            -15.696,
            -17.39117,
            -18.96077,
            -20.65593,
            -22.35111,
            -23.66957,
            -25.17639,
            -26.80877,
            -28.56672,
            -30.07353,
            -31.7687,
            -33.14996,
            -34.84512,
            -36.72864,
            -38.42381,
            -39.93063,
            -41.50023,
            -43.38375,
            -44.76499,
            -46.02068,
            -47.46471,
            -49.15987,
            -50.66669,
            -52.1735,
            -53.93145,
            -55.6894,
            -57.00787,
            -58.45191,
            -59.77037,
            -61.2144,
            -62.28172,
            -63.66298,
            -65.35815,
            -66.92774,
            -68.74848,
            -70.44365,
            -71.63654,
            -72.6411,
            -74.21069,
            -75.46637,
            -76.9104,
            -78.41721,
            -79.73568,
            -80.8658,
            -82.62373,
            -83.69107,
            -85.51181,
            -87.01862,
            -88.651,
            -89.90668,
            -91.22516,
            -92.73196,
            -93.79929,
            -95.62002,
            -97.12688,
            -98.3197,
            -99.76379,
            -101.2079,
            -102.7147,
            -104.0959,
            -105.791,
            -106.8584,
            -108.5535,
            -109.9976,
            -111.63,
            -112.6345,
            -114.0157,
            -115.4598,
            -116.7783,
            -118.0339,
            -119.4779,
            -120.1685,
            -121.6126,
            -122.1776,
            -123.245,
            -124.0612,
            -124.6262,
            -125.0657,
            -125.1285,
            -122.9311,
            -121.2987,
            -120.2314,
            -118.7246,
            -117.4061,
            -115.2715,
            -112.8229,
            -110.2487,
            -107.9257,
            -106.6701,
            -105.4143,
            -103.4053,
            -102.0868,
            -100.58,
            -99.26148,
            -97.75467,
            -96.37344,
            -94.9922,
            -93.48537,
            -91.97856,
            -90.91122,
            -89.27885,
            -87.96037,
            -86.57914,
            -84.94675,
            -83.69107,
            -82.3726,
            -81.11693,
            -79.48454,
            -76.78483,
            -75.40359,
            -73.70841,
            -70.75757,
            -69.62745,
            -67.99507,
            -66.42547,
            -64.91865,
            -63.78854,
            -62.15616,
            -60.83769,
            -58.95417,
            -57.76128,
            -56.38004,
            -55.06157,
            -53.3664,
            -50.98061,
            -49.91328,
            -48.40647,
            -46.89965,
            -45.1417,
            -43.82323,
            -42.06528,
            -40.37011,
            -38.67495,
            -36.79142,
            -35.28461,
            -33.46387,
            -31.58035,
            -29.69683,
            -27.93888,
            -26.43207,
            -24.29741,
            -22.41389,
            -20.46759,
            -18.89799,
            -17.14003,
            -15.31929,
            -13.18464,
            -11.42669,
            -9.731521,
            -7.910784,
            -5.96448,
            -4.332096,
            -2.385792,
            -1.067328,
            0.376704,
            1.88352,
            3.390336,
            5.399424,
            7.094592,
            8.664192,
            11.11277,
            12.30567,
            14.62867,
            16.19827,
            18.52128,
            19.52583,
            21.28377,
            22.79059,
            24.48576,
            26.05536,
            27.37383,
            28.81785,
            30.38745,
            32.08263,
            34.02893,
            35.53575,
            37.48204,
            39.49113,
            41.50023,
            43.44653,
            45.20448,
            47.088,
            49.15987,
            50.98061,
            52.86412,
            54.43373,
            56.69395,
            58.64025,
            60.46099,
            62.28172,
            63.85133,
            65.60928,
            67.55557,
            69.06239,
            70.69479,
            72.26437,
            74.1479,
            75.46637,
            76.9104,
            78.41721,
            80.11239,
            81.49364,
            82.93765,
            85.51181,
            88.3371,
            90.47175,
            93.10867,
            95.18054,
            97.37794,
            99.70105,
            101.4589,
            103.468,
            105.2887,
            107.1095,
            108.8047,
            110.2487,
            111.1905,
            111.3161,
            112.0067,
            112.6345,
            112.4462,
            113.1368,
            113.3251,
            113.1368,
            112.2577,
            111.63,
            110.6882,
            109.872,
            109.4325,
            108.9302,
            107.9885,
            106.7955,
            105.9166,
            105.5399,
            104.9121,
            104.4098,
            103.9075,
            103.4053,
            102.5263,
            101.7101,
            101.2079,
            100.58,
            99.9521,
            99.1359,
            98.25697,
            97.62909,
            97.00131,
            96.12231,
            95.43168,
            94.30157,
            93.29701,
            92.48083,
            91.35072,
            90.6601,
            89.59277,
            88.83936,
            87.52089,
            86.7047,
            85.32345,
            84.50726,
            82.3726,
            80.99136,
            78.91949,
            76.72205,
            74.96409,
            73.70841,
            72.07603,
            70.75757,
            68.99962,
            67.68115,
            66.17434,
            64.47916,
            62.84679,
            60.64935,
            59.07975,
            57.38458,
            56.12889,
            54.43373,
            52.92691,
            51.42009,
            49.4738,
            47.71584,
            45.83232,
            44.07437,
            42.19085,
            40.62125,
            38.86329,
            36.60308,
            35.41017,
            33.58944,
            31.95706,
            30.51303,
            28.44115,
            27.05991,
            25.42752,
            23.66957,
            21.9744,
            19.58861,
            18.45849,
            16.76333,
            15.06816,
            13.49856,
            12.05453,
            10.17101,
            8.413056,
            6.655104,
            5.211072,
            4.08096,
            2.574144,
            1.067328,
            -0.502272,
            -1.506816,
            -3.076416,
            -1.695168,
            -3.390336,
            -4.7088,
            -5.96448,
            -7.094592,
            -8.16192,
            -9.292032,
            -10.35936,
            -11.17555,
            -12.18009,
            -12.87072,
            -13.74969,
            -14.81703,
            -15.75879,
            -16.76333,
            -17.2656,
            -18.52128,
            -19.52583,
            -20.78151,
            -21.78605,
            -23.04173,
            -24.23463,
            -25.74144,
            -27.24825,
            -28.37837,
            -30.26188,
            -32.01984,
            -33.71501,
            -35.09625,
            -36.72864,
            -37.98432,
            -39.49113,
            -41.06073,
            -42.50476,
            -43.88601,
            -45.58119,
            -47.52748,
            -49.15987,
            -50.72947,
            -52.23629,
            -53.93145,
            -55.62663,
            -57.19622,
            -59.33088,
            -60.77491,
            -62.40729,
            -63.60019,
            -65.16978,
            -66.48826,
            -67.86951,
            -69.69024,
            -71.32262,
            -73.33171,
            -74.65017,
            -76.03143,
            -77.66382,
            -79.17062,
            -80.36352,
            -81.93312,
            -83.69107,
            -85.19788,
            -86.89306,
            -88.3371,
            -89.59277,
            -91.16237,
            -92.79475,
            -94.42713,
            -95.87117,
            -97.44078,
            -98.6337,
            -100.2032,
            -101.4589,
            -103.0286,
            -104.5354,
            -105.7283,
            -107.0467,
            -108.3024,
            -109.4325,
            -110.8765,
            -111.8183,
            -112.6973,
            -113.5762,
            -114.3924,
            -115.2086,
            -115.8365,
            -116.276,
            -116.7154,
            -116.7154,
            -116.9039,
            -117.2177,
            -116.7783,
            -116.6527,
            -116.6527,
            -116.1504,
            -115.0203,
            -113.953,
            -112.8229,
            -111.63,
            -111.1905,
            -110.8765,
            -110.437,
            -109.872,
            -109.6208,
            -109.1814,
            -108.3652,
            -107.7373,
            -107.2978,
            -106.4816,
            -105.5399,
            -104.9748,
            -104.0331,
            -103.1541,
            -102.2751,
            -101.3962,
            -100.8311,
            -100.1405,
            -99.32432,
            -98.38255,
            -97.37794,
            -96.37344,
            -95.49447,
            -93.98765,
            -92.85754,
            -93.0459,
            -92.6064,
            -91.35072,
            -90.72288,
            -90.2206,
            -88.71379,
            -86.83027,
            -85.38624,
            -84.19334,
            -82.8121,
            -81.2425,
            -79.79846,
            -78.04051,
            -76.34534,
            -74.5246,
            -72.82944,
            -71.57376,
            -70.00416,
            -68.62292,
            -67.05331,
            -65.79764,
            -64.03967,
            -62.40729,
            -61.02605,
            -59.58201,
            -58.20076,
            -56.81952,
            -55.50105,
            -54.11981,
            -52.42464,
            -51.16896,
            -49.72493,
            -48.15533,
            -46.83686,
            -45.5184,
            -44.01159,
            -42.63034,
            -40.8096,
            -39.30278,
            -37.60761,
            -36.03801,
            -34.34285,
            -32.83603,
            -31.45478,
            -29.94797,
            -28.31559,
            -26.80877,
            -25.1136,
            -23.48121,
            -22.16275,
            -20.65593,
            -19.08633,
            -17.83065,
            -16.38663,
            -14.87981,
            -13.31021,
            -11.67783,
            -10.17101,
            -8.538624,
            -7.157376,
            -6.655104,
            -6.655104,
            -6.090048,
            -5.148288,
            -4.143744,
            -3.45312,
            -2.636928,
            -1.695168,
            -0.816192,
            0.251136,
            1.318464,
            1.88352,
            2.82528,
            3.641472,
            4.897152,
            6.027264,
            7.157376,
            8.224704,
            9.4176,
            10.61049,
            12.18009,
            13.68691,
            14.56589,
            15.75879,
            17.39117,
            19.14912,
            20.65593,
            21.78605,
            23.16729,
            24.73689,
            26.18093,
            27.49939,
            28.88064,
            30.57581,
            32.27098,
            33.71501,
            35.66132,
            37.35648,
            39.11444,
            40.87239,
            42.31642,
            44.01159,
            45.58119,
            47.088,
            48.78316,
            50.54112,
            52.48743,
            54.11981,
            55.62663,
            57.19622,
            58.8914,
            60.20986,
            61.96781,
            63.47463,
            64.85587,
            66.42547,
            67.99507,
            69.69024,
            71.13428,
            72.51552,
            74.02234,
            75.02688,
            76.28256,
            77.41267,
            78.41721,
            79.54733,
            80.42631,
            81.43085,
            82.18426,
            82.8121,
            83.62829,
            84.25613,
            84.88396,
            85.57458,
            86.01408,
            86.39078,
            87.01862,
            87.33254,
            87.70924,
            88.08595,
            88.3371,
            87.45811,
            87.70924,
            87.8976,
            88.14874,
            88.08595,
            88.14874,
            88.71379,
            88.3371,
            88.52544,
            88.21152,
            88.14874,
            88.21152,
            88.08595,
            87.8976,
            87.8976,
            87.70924,
            87.33254,
            87.33254,
            86.83027,
            86.7047,
            86.39078,
            86.01408,
            85.70016,
            85.13511,
            84.7584,
            84.44447,
            83.1888,
            83.12601,
            82.30982,
            82.18426,
            81.49364,
            80.23794,
            80.61466,
            80.11239,
            78.10329,
            76.78483,
            74.96409,
            73.52007,
            72.2016,
            70.75757,
            68.43456,
            66.48826,
            64.85587,
            62.84679,
            61.33997,
            59.39367,
            57.82407,
            56.12889,
            54.43373,
            52.61299,
            51.10617,
            49.41101,
            47.96697,
            46.14624,
            44.3255,
            42.31642,
            40.43289,
            38.54937,
            36.79142,
            35.09625,
            33.33831,
            31.32921,
            29.69683,
            27.49939,
            25.86701,
            24.10905,
            21.9744,
            20.46759,
            18.96077,
            17.64231,
            15.94713,
            14.25197,
            12.43123,
            11.17555,
            9.668736,
            7.785216,
            6.027264,
            4.7088,
            3.264768,
            1.695168,
            -0.188352,
            -1.757952,
            -3.076416,
            -4.771584,
            -6.090048,
            -7.53408,
            -9.229248,
            -10.73607,
            -9.4176,
            -10.79885,
            -11.86617,
            -13.37299,
            -14.56589,
            -15.75879,
            -16.76333,
            -17.64231,
            -18.45849,
            -19.27469,
            -20.02809,
            -21.03264,
            -21.72327,
            -22.41389,
            -23.04173,
            -23.92071,
            -24.73689,
            -25.74144,
            -26.43207,
            -27.31104,
            -28.37837,
            -29.44569,
            -30.38745,
            -31.64313,
            -32.83603,
            -34.15449,
            -35.28461,
            -36.60308,
            -37.79596,
            -39.36557,
            -39.6167,
            -41.06073,
            -42.94425,
            -44.3255,
            -46.20903,
            -47.71584,
            -49.03431,
            -50.54112,
            -51.85959,
            -53.55475,
            -55.06157,
            -56.31725,
            -57.13344,
            -58.51469,
            -59.95872,
            -61.33997,
            -62.784,
            -64.3536,
            -65.60928,
            -66.86496,
            -68.43456,
            -69.94137,
            -71.38541,
            -72.6411,
            -73.95956,
            -75.27802,
            -76.5337,
            -77.78938,
            -79.10784,
            -80.17517,
            -81.43085,
            -82.3726,
            -83.37715,
            -84.31892,
            -85.19788,
            -86.45357,
            -87.20698,
            -87.96037,
            -88.77657,
            -89.65556,
            -90.28339,
            -90.78567,
            -91.35072,
            -91.97856,
            -92.41805,
            -92.48083,
            -93.35982,
            -93.54816,
            -93.98765,
            -94.176,
            -94.5527,
            -94.61549,
            -94.74106,
            -94.9922,
            -95.18054,
            -95.43168,
            -94.86662,
            -93.35982,
            -93.79929,
            -93.73651,
            -93.79929,
            -93.73651,
            -93.79929,
            -93.73651,
            -93.29701,
            -93.23425,
            -92.92032,
            -92.79475,
            -92.6064,
            -92.2297,
            -92.04134,
            -91.53908,
            -90.97402,
            -90.6601,
            -90.09504,
            -89.8439,
            -89.27885,
            -88.77657,
            -88.21152,
            -87.45811,
            -87.01862,
            -86.39078,
            -85.76295,
            -84.31892,
            -82.93765,
            -81.74477,
            -82.18426,
            -81.68198,
            -80.42631,
            -79.17062,
            -77.78938,
            -76.09421,
            -74.65017,
            -73.33171,
            -72.07603,
            -70.69479,
            -69.4391,
            -67.9323,
            -66.42547,
            -64.98144,
            -63.66298,
            -62.28172,
            -61.08883,
            -59.58201,
            -58.32633,
            -57.32179,
            -55.94055,
            -54.43373,
            -52.92691,
            -51.54567,
            -50.35276,
            -48.84595,
            -47.52748,
            -46.2718,
            -44.63942,
            -43.19539,
            -41.87693,
            -40.37011,
            -39.05165,
            -37.60761,
            -36.1008,
            -34.46842,
            -32.89881,
            -31.392,
            -29.8224,
            -28.19001,
            -26.62041,
            -25.17639,
            -23.85792,
            -22.41389,
            -21.03264,
            -19.52583,
            -17.89344,
            -16.38663,
            -15.19373,
            -13.68691,
            -12.30567,
            -11.17555,
            -9.480384,
            -7.910784,
            -6.466752,
            -4.959936,
            -3.578688,
            -2.323008,
            -1.130112,
            0.251136,
            1.5696,
            1.946304,
            2.19744,
            3.076416,
            3.892608,
            4.583232,
            5.776128,
            6.655104,
            7.53408,
            8.350272,
            8.852544,
            9.857086,
            10.67328,
            11.36391,
            12.24288,
            12.87072,
            13.93805,
            12.93351,
            14.25197,
            15.50765,
            16.13549,
            17.76787,
            18.77241,
            19.96531,
            21.09543,
            22.16275,
            23.23008,
            24.3602,
            25.55309,
            26.6832,
            27.87609,
            29.0062,
            30.70137,
            31.95706,
            33.46387,
            34.46842,
            36.1008,
            37.48204,
            39.05165,
            40.43289,
            42.06528,
            43.38375,
            44.95335,
            46.39737,
            47.96697,
            49.41101,
            50.91783,
            52.1735,
            53.68032,
            55.18714,
            56.38004,
            57.63571,
            58.8914,
            60.0215,
            61.27719,
            62.34451,
            63.47463,
            64.54195,
            65.42093,
            66.61382,
            67.43002,
            68.37177,
            69.18797,
            70.06695,
            70.69479,
            71.57376,
            72.26437,
            72.82944,
            73.45728,
            74.21069,
            74.65017,
            75.27802,
            75.65472,
            76.34534,
            76.72205,
            77.53824,
            77.66382,
            78.22887,
            78.41721,
            78.73113,
            79.04505,
            79.2962,
            79.48454,
            79.48454,
            79.73568,
            79.79846,
            79.98681,
            80.17517,
            80.17517,
            80.17517,
            79.98681,
            80.11239,
            80.11239,
            80.17517,
            79.98681,
            79.04505,
            78.8567,
            78.66835,
            78.60557,
            78.41721,
            78.41721,
            77.97774,
            77.85217,
            77.41267,
            77.16153,
            76.72205,
            76.34534,
            76.09421,
            75.52914,
            75.08967,
            74.21069,
            73.58285,
            72.45274,
            70.44365,
            68.37177,
            66.61382,
            64.54195,
            63.03513,
            61.2144,
            59.51923,
            57.63571,
            55.94055,
            54.55929,
            52.67578,
            50.91783,
            49.03431,
            47.15078,
            44.95335,
            43.44653,
            41.68857,
            40.05619,
            38.42381,
            36.60308,
            35.03347,
            33.33831,
            31.392,
            30.07353,
            28.12723,
            26.05536,
            24.10905,
            22.41389,
            21.09543,
            19.52583,
            17.64231,
            16.32384,
            14.56589,
            13.12185,
            11.61504,
            9.668736,
            7.910784,
            6.215616,
            4.520448,
            3.076416,
            1.757952,
            -0.251136,
            -1.88352,
            -3.45312,
            -4.7088,
            -6.215616,
            -7.910784,
            -9.4176,
            -11.23833,
            -13.31021,
            -15.44487,
            -17.2656,
            -19.14912,
            -16.95168,
            -18.52128,
            -19.96531,
            -21.53491,
            -22.53945,
            -23.35565,
            -24.67411,
            -25.36473,
            -26.36928,
            -27.31104,
            -28.00167,
            -28.81785,
            -29.8224,
            -30.51303,
            -31.45478,
            -32.64768,
            -33.33831,
            -34.46842,
            -35.47296,
            -36.35193,
            -37.41927,
            -38.42381,
            -39.55392,
            -40.8096,
            -41.56301,
            -43.13261,
            -44.3255,
            -45.33004,
            -46.20903,
            -47.90419,
            -48.97152,
            -50.79225,
            -51.98516,
            -53.30361,
            -54.74765,
            -55.94055,
            -57.19622,
            -58.64025,
            -60.0215,
            -61.27719,
            -62.72121,
            -63.66298,
            -64.98144,
            -66.23712,
            -67.55557,
            -68.74848,
            -69.8158,
            -70.94592,
            -72.01324,
            -73.01779,
            -74.21069,
            -75.08967,
            -75.84308,
            -76.72205,
            -77.66382,
            -78.29164,
            -79.2962,
            -79.92403,
            -80.67744,
            -81.2425,
            -81.74477,
            -82.24704,
            -82.68652,
            -83.00046,
            -83.43993,
            -83.81664,
            -84.06777,
            -84.44447,
            -84.7584,
            -84.69561,
            -84.94675,
            -85.26067,
            -84.94675,
            -85.13511,
            -85.26067,
            -84.94675,
            -85.07232,
            -84.7584,
            -84.69561,
            -84.50726,
            -84.19334,
            -83.87943,
            -83.56551,
            -83.1888,
            -82.93765,
            -82.49817,
            -82.12147,
            -81.87034,
            -81.6192,
            -81.05415,
            -80.55186,
            -80.17517,
            -79.67289,
            -78.91949,
            -78.29164,
            -77.41267,
            -76.78483,
            -75.27802,
            -73.89677,
            -73.70841,
            -72.38995,
            -71.19706,
            -69.8158,
            -68.62292,
            -67.30444,
            -66.04877,
            -64.66752,
            -63.34906,
            -61.96781,
            -60.58656,
            -59.33088,
            -58.01241,
            -56.69395,
            -55.6894,
            -53.99424,
            -52.48743,
            -51.29453,
            -50.03885,
            -48.40647,
            -47.02521,
            -45.83232,
            -44.51385,
            -43.25817,
            -42.06528,
            -40.62125,
            -39.17721,
            -38.04711,
            -36.54029,
            -35.28461,
            -34.02893,
            -32.89881,
            -31.58035,
            -30.26188,
            -28.75507,
            -27.37383,
            -25.86701,
            -24.67411,
            -23.04173,
            -21.53491,
            -20.4048,
            -18.89799,
            -17.64231,
            -16.32384,
            -15.00537,
            -13.68691,
            -12.43123,
            -11.11277,
            -9.668736,
            -8.16192,
            -6.90624,
            -5.587776,
            -4.018176,
            -2.82528,
            -1.444032,
            -0.188352,
            1.506816,
            2.82528,
            4.269312,
            5.587776,
            6.843456,
            8.224704,
            9.4176,
            10.35936,
            10.9872,
            11.99175,
            12.87072,
            13.49856,
            13.81248,
            13.31021,
            14.62867,
            15.50765,
            16.19827,
            16.32384,
            17.57952,
            18.64685,
            19.33747,
            20.21645,
            20.78151,
            21.72327,
            22.53945,
            23.16729,
            24.10905,
            24.54855,
            25.17639,
            26.05536,
            26.80877,
            27.87609,
            28.62951,
            29.50848,
            30.38745,
            31.45478,
            32.71047,
            33.58944,
            34.78234,
            35.84967,
            36.97978,
            38.04711,
            39.05165,
            39.9934,
            40.99796,
            41.75136,
            42.63034,
            43.69767,
            44.70221,
            45.95789,
            46.71129,
            47.96697,
            48.6576,
            49.66214,
            50.66669,
            51.60845,
            52.48743,
            53.49197,
            53.99424,
            55.06157,
            55.6894,
            56.69395,
            57.38458,
            58.26355,
            58.70304,
            59.33088,
            60.20986,
            60.77491,
            61.65388,
            62.09337,
            62.59566,
            63.16071,
            63.66298,
            64.22803,
            64.85587,
            65.29536,
            65.9232,
            66.61382,
            67.11609,
            67.4928,
            67.99507,
            68.37177,
            68.93684,
            69.18797,
            69.37632,
            69.62745,
            69.87859,
            70.12973,
            70.56922,
            70.94592,
            71.00871,
            71.19706,
            71.19706,
            71.19706,
            71.57376,
            71.57376,
            71.8249,
            71.57376,
            71.63654,
            71.63654,
            71.44819,
            71.57376,
            71.44819,
            71.38541,
            71.38541,
            71.00871,
            70.56922,
            70.50642,
            70.31808,
            69.94137,
            69.69024,
            69.50188,
            69.06239,
            68.30899,
            67.99507,
            67.43002,
            66.17434,
            64.73031,
            63.22348,
            61.90503,
            59.14252,
            56.25447,
            54.99878,
            53.24083,
            51.73401,
            48.78316,
            46.20903,
            43.38375,
            40.68403,
            37.79596,
            35.47296,
            32.64768,
            30.26188,
            27.87609,
            25.42752,
            23.66957,
            21.28377,
            19.83975,
            17.83065,
            16.51219,
            14.69145,
            13.12185,
            11.17555,
            9.480384,
            7.785216,
            6.403968,
            4.771584,
            3.201984,
            1.695168,
            0.0,
            -1.5696,
            -3.515904,
            -5.33664,
            -6.717888,
            -8.664192,
            -10.61049,
            -12.49401,
            -13.93805,
            -15.696,
            -17.20281,
            -18.77241,
            -20.4048,
            -21.78605,
            -23.41843,
            -25.17639,
            -24.29741,
            -25.74144,
            -27.37383,
            -28.81785,
            -29.69683,
            -30.76416,
            -31.392,
            -31.83149,
            -32.71047,
            -33.08717,
            -33.52665,
            -34.15449,
            -34.59399,
            -35.41017,
            -35.66132,
            -36.35193,
            -36.60308,
            -37.41927,
            -37.60761,
            -38.42381,
            -38.92608,
            -39.36557,
            -40.05619,
            -40.43289,
            -41.24908,
            -41.56301,
            -42.50476,
            -43.19539,
            -43.38375,
            -43.63488,
            -45.33004,
            -46.39737,
            -47.77863,
            -48.40647,
            -49.41101,
            -50.66669,
            -51.67123,
            -53.11527,
            -53.55475,
            -53.99424,
            -55.24992,
            -56.69395,
            -57.76128,
            -58.95417,
            -59.33088,
            -60.3982,
            -61.84224,
            -62.34451,
            -63.66298,
            -64.54195,
            -65.29536,
            -66.36269,
            -67.43002,
            -67.9323,
            -68.81126,
            -69.50188,
            -70.00416,
            -70.56922,
            -71.13428,
            -71.57376,
            -72.38995,
            -72.51552,
            -73.14336,
            -73.52007,
            -73.89677,
            -74.58739,
            -74.65017,
            -75.21522,
            -75.27802,
            -75.84308,
            -76.03143,
            -76.34534,
            -76.72205,
            -76.9104,
            -77.34988,
            -77.22432,
            -77.53824,
            -77.66382,
            -77.97774,
            -78.04051,
            -77.97774,
            -78.10329,
            -78.04051,
            -78.41721,
            -78.22887,
            -78.22887,
            -78.22887,
            -77.97774,
            -77.97774,
            -77.78938,
            -77.78938,
            -77.53824,
            -77.53824,
            -77.09875,
            -76.59648,
            -76.34534,
            -76.09421,
            -75.65472,
            -75.40359,
            -74.83852,
            -74.58739,
            -74.1479,
            -73.70841,
            -73.14336,
            -72.82944,
            -72.38995,
            -71.57376,
            -70.75757,
            -70.06695,
            -68.74848,
            -67.74393,
            -67.55557,
            -67.11609,
            -65.9232,
            -64.66752,
            -63.22348,
            -61.52832,
            -59.70758,
            -58.51469,
            -57.19622,
            -55.50105,
            -53.55475,
            -52.61299,
            -50.79225,
            -49.59936,
            -48.34368,
            -47.088,
            -45.39283,
            -44.26272,
            -42.50476,
            -40.55847,
            -38.92608,
            -37.04256,
            -35.41017,
            -33.77779,
            -32.39655,
            -30.88973,
            -29.0062,
            -27.49939,
            -25.74144,
            -24.29741,
            -22.60224,
            -21.91161,
            -19.52583,
            -18.20736,
            -16.38663,
            -14.44032,
            -12.74515,
            -11.17555,
            -9.292032,
            -7.722432,
            -5.96448,
            -4.332096,
            -2.009088,
            -0.62784,
            1.067328,
            2.323008,
            4.08096,
            5.399424,
            6.717888,
            8.099136,
            9.857086,
            11.42669,
            12.93351,
            13.74969,
            15.50765,
            16.70055,
            16.19827,
            17.57952,
            18.27015,
            19.33747,
            20.15367,
            20.84429,
            21.78605,
            22.35111,
            23.23008,
            24.04627,
            24.73689,
            25.42752,
            26.24371,
            26.87155,
            27.87609,
            28.44115,
            29.06899,
            30.07353,
            30.57581,
            31.392,
            32.39655,
            33.08717,
            33.71501,
            34.65677,
            35.41017,
            36.35193,
            37.04256,
            37.98432,
            38.92608,
            39.80506,
            40.62125,
            41.56301,
            42.3792,
            43.25817,
            44.26272,
            45.1417,
            46.14624,
            47.02521,
            47.71584,
            48.59481,
            49.41101,
            50.10163,
            51.16896,
            51.60845,
            52.42464,
            53.3664,
            53.93145,
            54.43373,
            55.24992,
            55.62663,
            56.38004,
            56.94509,
            57.57293,
            58.20076,
            58.51469,
            59.07975,
            59.58201,
            60.14707,
            60.64935,
            61.27719,
            61.52832,
            62.09337,
            62.34451,
            62.59566,
            63.16071,
            63.41184,
            63.47463,
            64.03967,
            64.03967,
            64.22803,
            64.47916,
            64.47916,
            64.73031,
            64.47916,
            64.54195,
            64.73031,
            64.3536,
            64.54195,
            64.3536,
            64.47916,
            64.10246,
            64.03967,
            63.78854,
            63.78854,
            63.16071,
            63.03513,
            62.53286,
            62.34451,
            62.15616,
            61.90503,
            61.52832,
            61.2144,
            60.64935,
            60.20986,
            60.0215,
            59.39367,
            59.26809,
            58.45191,
            58.26355,
            57.63571,
            56.81952,
            56.12889,
            55.75219,
            55.18714,
            54.43373,
            53.30361,
            50.79225,
            50.10163,
            49.4738,
            49.03431,
            48.78316,
            48.15533,
            47.65306,
            47.088,
            46.64851,
            46.2718,
            45.64397,
            45.1417,
            44.51385,
            43.82323,
            43.44653,
            42.94425,
            42.31642,
            41.93972,
            41.50023,
            40.68403,
            39.9934,
            39.11444,
            38.86329,
            38.23545,
            36.79142,
            36.97978,
            36.72864,
            35.53575,
            33.52665,
            31.58035,
            29.38291,
            27.75052,
            25.74144,
            23.41843,
            21.9744,
            21.09543,
            19.33747,
            17.57952,
            16.13549,
            14.18919,
            12.61959,
            10.04544,
            8.538624,
            6.717888,
            4.959936,
            3.076416,
            1.506816,
            -0.251136,
            -2.19744,
            -4.143744,
            -5.838912,
            -7.785216,
            -9.668736,
            -11.55225,
            -13.18464,
            -15.00537,
            -16.82611,
            -18.52128,
            -20.27923,
            -21.78605,
            -23.23008,
            -24.73689,
            -26.49484,
            -28.81785,
            -30.13632,
            -32.27098,
            -33.90336,
            -35.47296,
            -36.72864,
            -38.67495,
            -40.18176,
            -42.06528,
            -43.88601,
            -45.39283,
            -47.02521,
            -48.53204,
            -48.97152,
            -48.09255,
            -49.15987,
            -49.8505,
            -50.2272,
            -50.91783,
            -51.10617,
            -51.60845,
            -51.60845,
            -52.1735,
            -52.1735,
            -52.48743,
            -52.48743,
            -52.73856,
            -53.05248,
            -53.05248,
            -53.30361,
            -53.30361,
            -53.3664,
            -53.30361,
            -53.49197,
            -53.68032,
            -53.68032,
            -53.80589,
            -53.55475,
            -53.93145,
            -53.68032,
            -53.93145,
            -53.93145,
            -53.80589,
            -54.18259,
            -53.80589,
            -54.11981,
            -54.11981,
            -54.11981,
            -54.11981,
            -54.11981,
            -54.18259,
            -54.37095,
            -54.43373,
            -54.37095,
            -54.37095,
            -54.43373,
            -54.43373,
            -54.74765,
            -54.55929,
            -54.74765,
            -54.87322,
            -54.99878,
            -55.31271,
            -55.24992,
            -55.62663,
            -55.62663,
            -55.94055,
            -56.06611,
            -56.38004,
            -56.69395,
            -56.75673,
            -57.19622,
            -57.19622,
            -57.76128,
            -57.88684,
            -58.20076,
            -58.51469,
            -58.70304,
            -59.51923,
            -59.70758,
            -60.20986,
            -60.58656,
            -61.02605,
            -61.46553,
            -61.90503,
            -62.09337,
            -62.59566,
            -62.90956,
            -63.41184,
            -64.03967,
            -64.41638,
            -64.73031,
            -65.29536,
            -65.10701,
            -65.60928,
            -65.73485,
            -66.04877,
            -66.42547,
            -66.86496,
            -67.05331,
            -67.74393,
            -68.18343,
            -68.18343,
            -68.37177,
            -68.74848,
            -68.99962,
            -69.18797,
            -69.25076,
            -69.50188,
            -69.8158,
            -69.69024,
            -70.06695,
            -70.06695,
            -70.2553,
            -70.31808,
            -70.44365,
            -70.56922,
            -70.44365,
            -70.31808,
            -70.31808,
            -70.44365,
            -70.2553,
            -70.12973,
            -70.12973,
            -69.8158,
            -69.87859,
            -69.50188,
            -69.25076,
            -69.25076,
            -68.81126,
            -68.74848,
            -68.12064,
            -67.74393,
            -67.30444,
            -66.86496,
            -66.67661,
            -66.17434,
            -65.9232,
            -65.10701,
            -64.91865,
            -64.41638,
            -63.66298,
            -63.41184,
            -62.72121,
            -62.34451,
            -61.52832,
            -60.90048,
            -60.46099,
            -59.70758,
            -59.33088,
            -58.45191,
            -58.01241,
            -57.19622,
            -56.75673,
            -55.87776,
            -55.24992,
            -54.62208,
            -53.93145,
            -53.3664,
            -52.67578,
            -51.85959,
            -51.16896,
            -50.35276,
            -49.91328,
            -48.97152,
            -48.21811,
            -47.52748,
            -46.83686,
            -46.20903,
            -45.20448,
            -44.63942,
            -43.82323,
            -43.25817,
            -42.50476,
            -41.75136,
            -40.99796,
            -40.05619,
            -39.55392,
            -38.42381,
            -37.54483,
            -37.04256,
            -36.35193,
            -32.83603,
            -29.19456,
            -28.62951,
            -27.37383,
            -27.56217,
            -26.05536,
            -24.73689,
            -23.60679,
            -20.78151,
            -19.40025,
            -18.27015,
            -17.01447,
            -16.07271,
            -14.81703,
            -12.61959,
            -11.42669,
            -9.480384,
            -7.157376,
            -5.96448,
            -4.771584,
            -2.574144,
            -1.25568,
            0.0,
            1.88352,
            3.641472,
            5.587776,
            7.53408,
            10.17101,
            11.80339,
            13.74969,
            14.87981,
            16.70055,
            19.08633,
            20.84429,
            21.91161,
            23.79513,
            25.42752,
            27.31104,
            28.62951,
            30.51303,
            32.01984,
            33.71501,
            35.47296,
            37.04256,
            38.92608,
            40.05619,
            41.87693,
            42.94425,
            43.63488,
            44.63942,
            44.70221,
            45.5184,
            45.76953,
            45.83232,
            46.46016,
            46.2718,
            46.89965,
            46.83686,
            46.83686,
            47.15078,
            46.83686,
            46.83686,
            46.83686,
            46.83686,
            46.83686,
            46.64851,
            46.71129,
            46.71129,
            46.64851,
            46.64851,
            46.71129,
            46.02068,
            46.02068,
            46.20903,
            46.20903,
            46.20903,
            45.83232,
            46.02068,
            46.20903,
            45.76953,
            46.14624,
            45.83232,
            45.83232,
            46.2718,
            45.95789,
            46.02068,
            45.95789,
            46.14624,
            45.95789,
            46.14624,
            45.95789,
            46.02068,
            46.46016,
            46.14624,
            46.2718,
            46.46016,
            46.14624,
            46.46016,
            46.46016,
            46.20903,
            46.39737,
            46.58573,
            46.2718,
            46.2718,
            46.58573,
            46.46016,
            46.39737,
            46.64851,
            46.58573,
            46.46016,
            46.39737,
            46.58573,
            46.39737,
            46.39737,
            46.2718,
            46.39737,
            46.2718,
            46.2718,
            46.2718,
            46.2718,
            46.02068,
            45.83232,
            46.20903,
            45.76953,
            45.95789,
            45.5184,
            45.33004,
            45.58119,
            45.07891,
            45.07891,
            45.07891,
            44.89056,
            44.70221,
            44.51385,
            44.13715,
            43.88601,
            44.01159,
            43.44653,
            41.87693,
            41.75136,
            41.24908,
            40.99796,
            40.05619,
            39.74227,
            39.30278,
            38.73773,
            38.23545,
            38.04711,
            37.04256,
            36.28915,
            35.47296,
            32.64768,
            32.39655,
            31.95706,
            31.01529,
            30.70137,
            29.88519,
            29.06899,
            27.75052,
            -0.690624
        ]
    }
}