{
    "Name": "Galeota et al. 1996, BA4",
    "Type": "Rectangular",
    "fpc": 80.0,
    "fyt": 430.0,
    "fsut": 0.0,
    "fyl": 430.0,
    "fsul": 0.0,
    "Width": 250.0,
    "Depth": 250.0,
    "L_Inflection": 1140.0,
    "L_Measured": 1140.0,
    "TestConfiguration": "Double Ended",
    "AxLoad": 1000.0,
    "P_Delta": "Shear provided",
    "dlb": 10.0,
    "dlb_c": 10.0,
    "nlb": 12.0,
    "cc_per": 30.0,
    "nib_per": 2.0,
    "cc_par": 30.0,
    "nib_par": 2.0,
    "SubType": "RI: Rectangular and interlocking ties",
    "nsl": 4.0,
    "dtb_rcs": 8.0,
    "s_rcs": 100.0,
    "FailureType": "Flexure",
    "data": {
        "disp": [
            0.18,
            0.4,
            0.57,
            0.62,
            0.72,
            0.91,
            1.08,
            1.13,
            1.31,
            1.57,
            1.65,
            1.79,
            1.97,
            2.17,
            2.25,
            2.4,
            2.6,
            2.76,
            2.85,
            3.15,
            3.26,
            3.46,
            3.79,
            3.78,
            4.08,
            4.28,
            4.29,
            4.73,
            4.83,
            5.04,
            5.38,
            5.41,
            5.69,
            6.03,
            6.12,
            6.52,
            6.79,
            7.05,
            7.35,
            7.56,
            8.0,
            8.09,
            8.439999,
            8.600001,
            9.04,
            9.140001,
            9.58,
            9.640001,
            9.99,
            10.15,
            10.65,
            10.87,
            11.36,
            11.48,
            12.02,
            12.06,
            12.69,
            12.99,
            13.19,
            13.65,
            13.79,
            14.4,
            14.47,
            14.62,
            15.03,
            15.56,
            15.99,
            16.14,
            16.66,
            17.2,
            18.21,
            18.42,
            18.54,
            18.14,
            17.76,
            17.65,
            17.42,
            17.08,
            16.81,
            16.48,
            16.3,
            15.95,
            15.57,
            15.41,
            15.04,
            14.8,
            14.44,
            14.26,
            14.03,
            13.61,
            13.42,
            13.09,
            12.85,
            12.6,
            12.34,
            12.1,
            11.63,
            11.46,
            11.09,
            10.91,
            10.4,
            10.34,
            9.890001,
            9.7,
            9.359999,
            9.020001,
            8.890001,
            8.32,
            8.020001,
            7.63,
            7.4,
            6.86,
            6.77,
            6.49,
            6.27,
            6.03,
            5.61,
            5.47,
            5.12,
            4.9,
            4.65,
            4.24,
            4.09,
            3.83,
            3.55,
            3.62,
            3.0,
            2.92,
            2.77,
            2.33,
            2.22,
            1.76,
            1.69,
            1.46,
            1.16,
            0.82,
            0.51,
            0.41,
            0.3,
            -0.18,
            -0.22,
            -0.32,
            -0.74,
            -0.76,
            -1.21,
            -1.38,
            -1.52,
            -1.96,
            -2.06,
            -2.43,
            -2.71,
            -3.04,
            -3.25,
            -3.21,
            -3.78,
            -3.79,
            -4.26,
            -4.4,
            -4.76,
            -4.96,
            -5.05,
            -5.47,
            -5.73,
            -6.12,
            -6.08,
            -6.71,
            -6.78,
            -7.4,
            -8.100001,
            -8.16,
            -8.79,
            -9.0,
            -9.43,
            -9.72,
            -10.16,
            -10.41,
            -10.73,
            -11.08,
            -11.56,
            -12.03,
            -12.66,
            -12.93,
            -13.34,
            -14.08,
            -13.92,
            -14.58,
            -15.13,
            -15.26,
            -16.1,
            -16.84,
            -17.05,
            -17.34,
            -18.08,
            -18.77,
            -19.8,
            -20.27,
            -21.02,
            -21.09,
            -20.95,
            -20.54,
            -20.37,
            -19.95,
            -19.73,
            -19.36,
            -19.11,
            -18.75,
            -18.41,
            -18.11,
            -17.7,
            -17.38,
            -16.98,
            -16.76,
            -16.29,
            -16.13,
            -15.75,
            -15.65,
            -15.13,
            -14.99,
            -14.63,
            -14.25,
            -13.92,
            -13.82,
            -13.24,
            -13.2,
            -12.48,
            -12.28,
            -11.95,
            -11.71,
            -11.21,
            -10.89,
            -10.29,
            -10.06,
            -9.479999,
            -9.38,
            -8.859999,
            -8.649999,
            -8.26,
            -8.11,
            -7.76,
            -7.38,
            -6.89,
            -6.6,
            -6.3,
            -5.91,
            -5.52,
            -5.4,
            -4.82,
            -4.81,
            -4.35,
            -4.14,
            -3.99,
            -3.42,
            -3.21,
            -2.89,
            -2.66,
            -2.49,
            -2.08,
            -1.76,
            -1.57,
            -1.32,
            -1.08,
            -0.87,
            -0.58,
            -0.5,
            -0.12,
            0.03,
            0.25,
            0.46,
            0.66,
            1.05,
            1.21,
            1.48,
            1.84,
            2.09,
            2.3,
            2.82,
            3.02,
            3.2,
            3.61,
            3.77,
            3.93,
            4.4,
            4.58,
            4.74,
            5.1,
            5.4,
            5.74,
            5.95,
            6.4,
            6.67,
            6.94,
            7.29,
            7.84,
            7.89,
            8.5,
            8.7,
            9.17,
            9.43,
            9.67,
            10.3,
            10.54,
            10.84,
            11.37,
            11.6,
            12.19,
            12.46,
            12.73,
            13.26,
            13.39,
            13.86,
            14.49,
            14.85,
            15.15,
            15.68,
            16.26,
            16.62,
            17.05,
            17.84,
            18.52,
            19.15,
            19.62,
            19.86,
            20.19,
            20.77,
            21.51,
            22.09,
            22.79,
            23.49,
            24.24,
            24.39,
            24.86,
            25.65,
            25.98,
            26.31,
            26.91,
            27.6,
            27.99,
            28.61,
            29.39,
            30.02,
            30.68,
            30.96,
            31.35,
            32.12,
            32.78,
            33.42,
            33.71,
            34.14,
            34.86,
            35.6,
            35.78,
            36.43,
            37.17,
            37.76,
            38.4,
            38.89,
            39.62,
            40.57,
            40.97,
            40.6,
            40.07,
            39.94,
            39.4,
            39.19,
            38.97,
            38.62,
            38.24,
            38.07,
            37.79,
            37.43,
            37.03,
            36.82,
            36.45,
            36.11,
            35.92,
            35.48,
            35.28,
            34.75,
            34.54,
            34.16,
            33.97,
            33.6,
            33.37,
            32.99,
            32.8,
            32.26,
            32.13,
            31.68,
            31.45,
            30.94,
            30.78,
            30.27,
            30.1,
            29.7,
            29.37,
            29.16,
            28.58,
            28.62,
            28.09,
            28.03,
            27.57,
            27.07,
            27.14,
            26.57,
            26.2,
            25.95,
            25.18,
            24.95,
            24.17,
            23.7,
            23.33,
            22.67,
            22.03,
            21.78,
            21.19,
            20.59,
            20.04,
            19.55,
            19.21,
            18.7,
            18.08,
            17.53,
            17.31,
            16.71,
            16.12,
            15.6,
            15.39,
            14.72,
            14.13,
            13.58,
            13.0,
            12.64,
            11.84,
            10.97,
            10.88,
            10.23,
            9.71,
            9.270001,
            8.96,
            8.34,
            7.6,
            7.33,
            6.61,
            6.28,
            5.85,
            5.39,
            5.07,
            4.37,
            4.09,
            3.37,
            3.24,
            2.71,
            2.39,
            1.98,
            1.61,
            1.27,
            0.53,
            0.37,
            -0.02,
            -0.29,
            -0.72,
            -1.24,
            -1.52,
            -1.9,
            -2.44,
            -2.54,
            -3.04,
            -3.31,
            -3.7,
            -4.13,
            -4.45,
            -4.93,
            -5.17,
            -5.91,
            -6.37,
            -6.54,
            -7.04,
            -7.52,
            -7.82,
            -8.439999,
            -8.99,
            -9.29,
            -10.05,
            -10.57,
            -10.76,
            -11.27,
            -11.93,
            -12.43,
            -13.01,
            -13.8,
            -14.45,
            -14.95,
            -15.69,
            -16.28,
            -16.84,
            -17.49,
            -18.24,
            -18.83,
            -19.54,
            -20.13,
            -20.79,
            -21.22,
            -21.58,
            -22.12,
            -22.87,
            -23.51,
            -24.16,
            -24.94,
            -25.26,
            -25.87,
            -26.71,
            -27.58,
            -28.36,
            -28.7,
            -29.25,
            -30.07,
            -30.69,
            -31.31,
            -31.72,
            -32.13,
            -32.81,
            -33.52,
            -34.08,
            -34.81,
            -35.17,
            -35.53,
            -36.2,
            -36.89,
            -37.71,
            -38.67,
            -39.08,
            -39.58,
            -40.15,
            -40.75,
            -41.37,
            -42.0,
            -42.26,
            -42.86,
            -43.55,
            -44.31,
            -44.88,
            -45.42,
            -45.67,
            -45.63,
            -45.08,
            -44.83,
            -44.25,
            -44.07,
            -43.52,
            -43.19,
            -42.64,
            -42.34,
            -41.88,
            -41.62,
            -41.11,
            -40.82,
            -40.27,
            -40.08,
            -39.77,
            -39.2,
            -38.92,
            -38.65,
            -38.03,
            -37.73,
            -37.26,
            -36.66,
            -36.42,
            -35.85,
            -35.51,
            -35.25,
            -34.67,
            -34.4,
            -34.14,
            -33.6,
            -33.34,
            -32.99,
            -32.38,
            -32.21,
            -31.84,
            -31.09,
            -30.75,
            -30.2,
            -29.88,
            -29.66,
            -29.0,
            -28.46,
            -28.26,
            -27.76,
            -27.25,
            -27.04,
            -26.75,
            -26.25,
            -25.59,
            -25.37,
            -24.74,
            -24.12,
            -23.89,
            -23.29,
            -22.71,
            -22.34,
            -22.09,
            -21.46,
            -20.73,
            -20.28,
            -20.15,
            -19.58,
            -18.93,
            -18.35,
            -17.83,
            -17.63,
            -17.0,
            -16.44,
            -15.81,
            -15.26,
            -14.9,
            -14.6,
            -13.96,
            -13.21,
            -12.52,
            -12.24,
            -11.98,
            -11.37,
            -10.74,
            -10.1,
            -9.8,
            -9.479999,
            -8.8,
            -8.23,
            -7.57,
            -7.19,
            -6.91,
            -6.08,
            -5.32,
            -4.94,
            -4.61,
            -3.84,
            -3.07,
            -2.8,
            -2.12,
            -1.71,
            -1.29,
            -0.6,
            0.25,
            0.4,
            0.94,
            1.68,
            2.16,
            2.47,
            3.31,
            3.54,
            4.12,
            4.85,
            5.69,
            5.96,
            6.33,
            7.14,
            7.71,
            8.59,
            8.8,
            9.71,
            10.44,
            11.01,
            11.4,
            11.7,
            12.68,
            13.49,
            14.35,
            15.2,
            16.02,
            16.88,
            17.63,
            18.5,
            19.04,
            19.45,
            20.08,
            21.04,
            21.83,
            22.38,
            23.19,
            24.08,
            24.97,
            25.76,
            26.66,
            27.19,
            27.91,
            28.86,
            29.4,
            30.29,
            31.14,
            31.95,
            32.46,
            33.39,
            33.81,
            34.64,
            35.51,
            36.33,
            37.35,
            37.73,
            38.28,
            39.04,
            39.98,
            40.86,
            41.76,
            41.8,
            41.34,
            40.99,
            40.66,
            40.17,
            39.73,
            39.27,
            38.91,
            38.51,
            38.17,
            37.73,
            37.4,
            36.91,
            36.56,
            36.15,
            35.78,
            35.41,
            35.07,
            34.74,
            34.18,
            33.88,
            33.56,
            33.13,
            32.71,
            32.41,
            31.99,
            31.89,
            31.3,
            30.89,
            30.77,
            30.27,
            29.84,
            29.43,
            28.9,
            28.49,
            27.96,
            27.46,
            27.0,
            26.48,
            25.47,
            24.88,
            24.32,
            23.73,
            22.98,
            22.46,
            21.92,
            21.41,
            20.81,
            19.81,
            19.3,
            18.71,
            18.18,
            17.09,
            16.51,
            15.98,
            15.47,
            14.92,
            14.35,
            13.72,
            13.24,
            12.73,
            12.12,
            11.59,
            11.03,
            9.95,
            9.439999,
            8.810001,
            7.8,
            7.34,
            6.72,
            6.22,
            5.23,
            4.72,
            4.1,
            3.55,
            2.58,
            2.11,
            1.54,
            0.49,
            0.04,
            -0.45,
            -1.01,
            -1.61,
            -2.01,
            -2.54,
            -3.63,
            -4.2,
            -4.62,
            -5.12,
            -5.75,
            -6.25,
            -6.69,
            -7.28,
            -7.87,
            -8.82,
            -9.359999,
            -9.97,
            -10.45,
            -11.02,
            -11.54,
            -12.08,
            -12.64,
            -13.77,
            -14.28,
            -14.93,
            -15.96,
            -16.52,
            -17.09,
            -17.63,
            -18.27,
            -19.34,
            -19.87,
            -20.52,
            -21.69,
            -22.21,
            -22.77,
            -23.31,
            -23.89,
            -24.5,
            -25.09,
            -25.63,
            -26.3,
            -26.84,
            -27.55,
            -28.11,
            -28.71,
            -29.31,
            -29.91,
            -30.55,
            -31.07,
            -31.67,
            -32.3,
            -32.92,
            -33.55,
            -34.37,
            -35.19,
            -35.84,
            -36.4,
            -37.1,
            -37.7,
            -38.27,
            -38.98,
            -39.6,
            -40.19,
            -40.78,
            -41.57,
            -42.07,
            -42.73,
            -43.36,
            -44.02,
            -44.72,
            -45.24,
            -45.85,
            -46.46,
            -46.66,
            -45.94,
            -45.46,
            -44.95,
            -44.64,
            -44.18,
            -43.7,
            -43.35,
            -42.91,
            -42.46,
            -42.0,
            -41.04,
            -40.61,
            -39.68,
            -39.27,
            -38.77,
            -38.33,
            -37.88,
            -36.98,
            -36.44,
            -35.5,
            -35.07,
            -34.13,
            -33.73,
            -32.75,
            -32.29,
            -31.67,
            -31.28,
            -31.17,
            -30.28,
            -29.78,
            -29.31,
            -28.33,
            -27.81,
            -27.39,
            -26.86,
            -26.35,
            -25.83,
            -25.32,
            -24.46,
            -23.79,
            -23.6,
            -23.11,
            -22.43,
            -21.67,
            -21.36,
            -21.12,
            -20.19,
            -19.63,
            -19.08,
            -18.51,
            -17.55,
            -16.98,
            -16.44,
            -15.86,
            -14.86,
            -14.35,
            -13.83,
            -13.28,
            -12.74,
            -12.01,
            -11.36,
            -10.32,
            -9.810001,
            -9.22,
            -8.689999,
            -7.67,
            -7.08,
            -6.1,
            -5.56,
            -4.49,
            -4.06,
            -3.53,
            -2.58,
            -2.05,
            -1.53,
            -0.97,
            0.02,
            1.05,
            1.52,
            2.06,
            2.6,
            3.56,
            4.08,
            4.62,
            5.09,
            5.63,
            6.16,
            6.73,
            7.7,
            8.26,
            8.770001,
            9.32,
            9.859999,
            10.42,
            10.94,
            11.49,
            12.01,
            12.56,
            13.12,
            13.68,
            14.2,
            14.75,
            15.35,
            15.89,
            16.98,
            17.56,
            18.0,
            18.62,
            19.16,
            19.74,
            20.29,
            20.89,
            21.43,
            22.01,
            22.58,
            23.12,
            23.63,
            24.17,
            24.79,
            25.35,
            25.94,
            26.53,
            27.69,
            28.22,
            28.84,
            29.34,
            29.93,
            30.49,
            31.12,
            31.66,
            32.28,
            32.79,
            33.41,
            33.96,
            34.57,
            35.24,
            35.67,
            36.33,
            36.93,
            38.08,
            38.63,
            39.24,
            39.86,
            40.4,
            40.97,
            41.65,
            42.22,
            42.12,
            41.63,
            41.22,
            40.91,
            40.47,
            40.03,
            39.63,
            39.31,
            38.84,
            38.58,
            38.17,
            37.84,
            37.29,
            37.03,
            36.43,
            36.05,
            35.73,
            35.44,
            34.93,
            34.74,
            34.06,
            33.94,
            33.44,
            32.91,
            32.46,
            31.63,
            31.25,
            30.73,
            30.37,
            29.87,
            28.93,
            28.49,
            28.07,
            27.52,
            26.56,
            26.12,
            25.09,
            24.11,
            23.6,
            22.58,
            21.58,
            21.07,
            20.65,
            20.13,
            19.07,
            18.08,
            17.65,
            16.69,
            16.18,
            15.67,
            15.09,
            14.53,
            13.99,
            12.99,
            11.97,
            11.47,
            10.92,
            10.37,
            9.41,
            8.88,
            8.350001,
            7.35,
            6.35,
            5.75,
            4.76,
            4.24,
            3.72,
            2.69,
            2.19,
            1.65,
            1.12,
            0.62,
            0.09000001,
            -0.38,
            -0.91,
            -1.48,
            -2.51,
            -3.15,
            -3.81,
            -4.82,
            -5.33,
            -5.91,
            -6.9,
            -7.53,
            -8.45,
            -9.03,
            -10.09,
            -10.56,
            -11.57,
            -12.1,
            -12.64,
            -13.15,
            -13.65,
            -14.21,
            -14.76,
            -15.27,
            -16.38,
            -16.89,
            -17.86,
            -18.46,
            -19.52,
            -20.05,
            -20.62,
            -21.12,
            -21.67,
            -22.13,
            -22.78,
            -23.32,
            -23.87,
            -24.94,
            -25.48,
            -26.01,
            -26.61,
            -27.11,
            -27.64,
            -28.29,
            -28.82,
            -29.8,
            -30.41,
            -31.02,
            -31.53,
            -32.12,
            -32.69,
            -33.29,
            -33.83,
            -34.41,
            -34.99,
            -35.51,
            -36.21,
            -36.76,
            -37.46,
            -37.97,
            -38.61,
            -39.16,
            -39.67,
            -40.28,
            -40.86,
            -41.41,
            -41.97,
            -42.66,
            -43.2,
            -43.76,
            -44.38,
            -44.88,
            -45.46,
            -46.06,
            -46.72,
            -46.9,
            -46.26,
            -45.97,
            -45.32,
            -45.01,
            -44.4,
            -44.06,
            -43.36,
            -43.02,
            -42.39,
            -42.08,
            -41.68,
            -41.02,
            -40.73,
            -40.31,
            -39.62,
            -39.21,
            -38.83,
            -38.11,
            -37.86,
            -37.45,
            -36.8,
            -36.45,
            -36.16,
            -35.56,
            -35.03,
            -34.97,
            -34.3,
            -33.62,
            -33.23,
            -32.56,
            -31.84,
            -31.5,
            -30.75,
            -30.1,
            -29.74,
            -29.11,
            -28.55,
            -28.35,
            -28.04,
            -27.3,
            -26.71,
            -26.56,
            -25.97,
            -25.27,
            -24.62,
            -24.31,
            -23.63,
            -22.91,
            -22.67,
            -22.25,
            -21.74,
            -21.06,
            -20.24,
            -19.41,
            -18.64,
            -17.83,
            -17.04,
            -16.18,
            -15.44,
            -15.01,
            -14.26,
            -13.41,
            -12.67,
            -11.82,
            -11.07,
            -10.27,
            -9.439999,
            -8.7,
            -7.9,
            -7.56,
            -7.1,
            -6.18,
            -5.25,
            -4.47,
            -3.72,
            -2.93,
            -2.15,
            -1.36,
            -1.05,
            -0.62,
            0.15,
            0.99,
            1.73,
            2.52,
            3.28,
            4.1,
            4.84,
            5.3,
            6.06,
            6.86,
            7.68,
            8.390001,
            9.28,
            10.04,
            10.91,
            11.61,
            12.45,
            13.29,
            13.99,
            14.84,
            15.64,
            16.42,
            16.89,
            17.72,
            18.47,
            19.29,
            20.12,
            20.9,
            21.76,
            22.56,
            23.4,
            24.25,
            25.06,
            26.0,
            26.71,
            27.19,
            27.57,
            28.48,
            29.25,
            30.12,
            31.02,
            31.9,
            32.62,
            33.12,
            33.52,
            34.35,
            35.23,
            36.07,
            36.73,
            37.25,
            38.18,
            39.02,
            39.57,
            39.97,
            40.85,
            41.86,
            41.72,
            41.15,
            40.89,
            40.16,
            39.95,
            39.47,
            39.24,
            38.64,
            38.35,
            37.84,
            37.62,
            37.08,
            36.81,
            36.22,
            35.97,
            35.63,
            35.14,
            34.97,
            34.24,
            33.89,
            33.59,
            32.84,
            32.41,
            32.17,
            31.39,
            30.99,
            30.7,
            29.94,
            29.59,
            29.17,
            28.42,
            27.71,
            27.27,
            26.91,
            26.1,
            25.31,
            24.49,
            24.08,
            23.36,
            22.44,
            21.75,
            21.32,
            20.46,
            19.76,
            18.92,
            18.56,
            17.71,
            16.93,
            16.2,
            15.76,
            14.87,
            13.86,
            12.99,
            12.21,
            11.38,
            10.49,
            9.68,
            9.229999,
            8.88,
            8.38,
            7.61,
            7.11,
            6.3,
            5.49,
            4.71,
            3.86,
            2.96,
            2.12,
            1.31,
            0.44,
            -0.37,
            -0.89,
            -1.63,
            -2.15,
            -3.0,
            -3.74,
            -4.25,
            -5.06,
            -5.57,
            -6.37,
            -7.27,
            -8.05,
            -8.93,
            -9.67,
            -10.69,
            -11.49,
            -12.36,
            -13.22,
            -14.08,
            -14.83,
            -15.35,
            -15.85,
            -16.57,
            -17.13,
            -17.93,
            -18.79,
            -19.61,
            -20.46,
            -20.99,
            -21.78,
            -22.7,
            -23.25,
            -24.01,
            -24.82,
            -25.35,
            -26.26,
            -27.14,
            -27.95,
            -28.45,
            -29.2,
            -29.83,
            -30.33,
            -31.58,
            -31.99,
            -32.91,
            -33.72,
            -34.33,
            -35.14,
            -35.7,
            -36.51,
            -37.43,
            -38.36,
            -38.84,
            -39.36,
            -40.1,
            -40.63,
            -41.68,
            -42.61,
            -43.08,
            -43.45,
            -44.4,
            -44.94,
            -45.46,
            -46.39,
            -46.9,
            -46.65,
            -46.37,
            -45.68,
            -45.34,
            -44.52,
            -44.15,
            -43.39,
            -42.9,
            -42.62,
            -41.88,
            -41.43,
            -41.08,
            -40.32,
            -39.94,
            -39.56,
            -38.84,
            -38.45,
            -38.03,
            -37.49,
            -36.84,
            -36.81,
            -36.08,
            -35.32,
            -34.93,
            -34.16,
            -33.32,
            -32.94,
            -32.18,
            -31.34,
            -31.02,
            -30.32,
            -29.65,
            -29.49,
            -28.92,
            -28.36,
            -27.55,
            -27.19,
            -26.4,
            -25.95,
            -25.43,
            -24.72,
            -23.95,
            -23.57,
            -23.25,
            -22.4,
            -21.62,
            -21.2,
            -20.85,
            -20.3,
            -19.29,
            -18.46,
            -17.58,
            -17.03,
            -16.07,
            -15.44,
            -14.94,
            -14.0,
            -13.6,
            -13.04,
            -12.24,
            -11.39,
            -10.89,
            -10.07,
            -9.57,
            -9.0,
            -8.3,
            -7.27,
            -6.48,
            -5.49,
            -4.6,
            -3.79,
            -3.21,
            -2.39,
            -1.87,
            -1.07,
            -0.56,
            -0.02,
            0.85,
            1.19,
            1.76,
            2.57,
            3.09,
            4.02,
            4.89,
            5.85,
            6.7,
            7.66,
            8.53,
            9.51,
            10.45,
            11.25,
            11.8,
            12.71,
            13.22,
            14.07,
            14.95,
            15.47,
            16.26,
            16.8,
            17.8,
            18.63,
            19.14,
            20.15,
            20.71,
            21.37,
            21.8,
            22.38,
            23.21,
            24.17,
            24.7,
            25.55,
            26.26,
            27.23,
            27.64,
            28.23,
            28.79,
            29.73,
            30.74,
            31.75,
            32.56,
            33.09,
            33.48,
            34.11,
            35.04,
            35.88,
            36.51,
            37.47,
            38.5,
            38.93,
            39.48,
            40.0,
            40.86,
            41.87,
            43.01,
            43.45,
            44.5,
            45.56,
            46.11,
            46.76,
            47.23,
            47.86,
            48.38,
            48.94,
            49.45,
            50.11,
            50.55,
            52.26,
            53.49,
            54.4,
            60.36,
            60.82,
            61.91,
            62.59,
            63.0
        ],
        "force": [
            3.013632,
            6.403968,
            8.287488,
            9.10368,
            12.05453,
            14.62867,
            15.50765,
            17.89344,
            20.4048,
            23.1673,
            24.17184,
            25.92979,
            28.69229,
            31.45478,
            32.45933,
            34.28006,
            37.48205,
            39.67949,
            40.87238,
            44.3255,
            45.5184,
            47.71584,
            51.04339,
            52.04794,
            54.11981,
            56.06611,
            57.07066,
            59.95872,
            60.77491,
            62.53286,
            65.16979,
            65.98598,
            67.74393,
            70.06694,
            70.69479,
            74.02234,
            74.65018,
            76.72205,
            78.98227,
            79.48454,
            82.18426,
            82.8121,
            84.82118,
            85.82573,
            87.8976,
            88.39987,
            90.91123,
            91.66464,
            93.48537,
            94.05043,
            96.43623,
            96.87571,
            99.38707,
            99.63821,
            102.024,
            102.5891,
            103.468,
            104.8493,
            106.0422,
            107.6118,
            107.8001,
            109.9348,
            110.3115,
            106.2305,
            106.5444,
            108.3024,
            108.993,
            109.1186,
            108.993,
            108.3652,
            95.30611,
            94.74106,
            92.54362,
            89.59277,
            86.95584,
            85.76295,
            84.44448,
            82.05869,
            80.86579,
            78.79392,
            77.22432,
            76.40813,
            73.95955,
            72.70387,
            70.31808,
            69.31354,
            66.99052,
            65.9232,
            64.41638,
            62.21894,
            61.2144,
            58.64025,
            57.63571,
            55.43827,
            54.30816,
            52.92691,
            50.35277,
            48.97152,
            47.21357,
            45.95789,
            43.5721,
            42.12806,
            39.99341,
            38.98886,
            36.60307,
            34.40563,
            33.3383,
            29.94797,
            28.69229,
            27.37382,
            26.99712,
            24.23462,
            22.3511,
            21.5977,
            19.58861,
            18.20736,
            15.06816,
            14.1264,
            12.24288,
            10.04544,
            9.10368,
            6.341184,
            5.399424,
            3.578688,
            1.192896,
            0.94176,
            -2.762496,
            -3.892608,
            -5.96448,
            -8.16192,
            -9.166464,
            -12.61958,
            -13.87526,
            -16.19827,
            -17.2656,
            -19.77696,
            -22.3511,
            -23.73235,
            -24.92525,
            -28.94342,
            -30.07354,
            -31.45478,
            -33.71501,
            -34.90791,
            -38.0471,
            -39.55392,
            -41.1863,
            -44.70221,
            -44.82778,
            -48.53203,
            -49.72493,
            -51.73402,
            -53.93146,
            -55.24992,
            -57.19622,
            -58.57747,
            -61.84224,
            -62.84678,
            -65.16979,
            -66.2999,
            -67.68115,
            -69.87859,
            -70.75757,
            -72.64109,
            -73.70842,
            -75.65472,
            -76.65926,
            -76.65926,
            -79.23341,
            -80.23795,
            -82.56096,
            -82.93766,
            -85.1351,
            -85.57459,
            -87.77203,
            -88.39987,
            -90.53453,
            -90.91123,
            -93.48537,
            -93.73651,
            -95.24332,
            -96.05952,
            -97.25242,
            -98.44531,
            -98.69645,
            -100.0149,
            -101.3962,
            -101.8356,
            -102.7774,
            -103.782,
            -104.347,
            -104.5354,
            -105.1632,
            -104.9121,
            -99.38707,
            -98.06861,
            -96.43623,
            -95.68282,
            -93.67373,
            -90.91123,
            -89.78112,
            -87.39532,
            -86.7047,
            -84.19334,
            -83.37715,
            -81.43085,
            -80.23795,
            -77.78938,
            -76.21977,
            -74.71296,
            -72.70387,
            -72.13882,
            -70.06694,
            -68.56013,
            -66.99052,
            -65.9232,
            -63.53741,
            -62.65843,
            -60.96326,
            -59.83315,
            -57.88685,
            -57.00787,
            -54.62208,
            -53.68032,
            -51.73402,
            -50.91782,
            -49.09709,
            -47.59027,
            -44.76499,
            -44.19994,
            -41.37466,
            -40.74681,
            -38.61216,
            -37.79597,
            -35.91245,
            -34.90791,
            -33.21273,
            -32.08262,
            -30.63859,
            -29.32013,
            -27.8761,
            -25.36474,
            -24.29741,
            -22.3511,
            -20.0281,
            -18.58406,
            -16.26106,
            -15.25651,
            -12.68237,
            -11.42669,
            -10.04544,
            -6.59232,
            -5.33664,
            -3.955392,
            -1.757952,
            -0.251136,
            3.578688,
            5.02272,
            6.969024,
            9.543168,
            10.54771,
            12.43123,
            13.68691,
            15.63322,
            19.27469,
            20.21645,
            22.03718,
            25.1136,
            26.36928,
            28.75507,
            29.69683,
            32.27098,
            35.22182,
            36.41472,
            39.42835,
            42.25363,
            43.44653,
            45.20448,
            48.2809,
            49.72493,
            51.04339,
            54.05702,
            55.68941,
            57.00787,
            59.83315,
            61.15162,
            62.34451,
            63.22349,
            65.9232,
            66.7394,
            69.18797,
            70.06694,
            72.13882,
            72.95501,
            74.5246,
            75.46637,
            77.22432,
            78.10329,
            79.23341,
            80.36352,
            81.6192,
            83.00045,
            84.44448,
            85.19789,
            86.7047,
            87.01862,
            88.14874,
            89.4672,
            89.96947,
            91.09959,
            92.04134,
            92.73197,
            92.92032,
            93.92487,
            94.74106,
            95.49446,
            95.80839,
            96.49901,
            96.24787,
            96.05952,
            92.35526,
            89.34163,
            89.96947,
            90.28339,
            90.09504,
            89.4672,
            88.96493,
            88.14874,
            86.95584,
            86.328,
            86.20243,
            83.94221,
            83.56551,
            83.43993,
            82.74931,
            80.80301,
            80.86579,
            80.67744,
            78.8567,
            78.98227,
            78.66835,
            76.9104,
            77.03596,
            76.9104,
            74.83853,
            74.46182,
            73.83398,
            72.45274,
            72.07603,
            70.38087,
            70.25529,
            69.94138,
            68.56013,
            68.56013,
            67.1161,
            67.1161,
            66.99052,
            65.54649,
            64.54195,
            61.40275,
            58.57747,
            57.44736,
            54.81043,
            53.24083,
            52.11072,
            51.16896,
            48.72038,
            47.40192,
            46.20902,
            43.76045,
            42.63034,
            41.62579,
            39.42835,
            38.23545,
            36.79142,
            34.46841,
            33.65223,
            31.14086,
            30.13632,
            28.12723,
            27.49939,
            25.4903,
            24.23462,
            22.72781,
            21.5977,
            19.83974,
            18.8352,
            16.82611,
            16.00992,
            13.49856,
            13.12186,
            11.23834,
            10.48493,
            8.978112,
            7.53408,
            6.59232,
            5.02272,
            4.771584,
            3.1392,
            2.323008,
            1.25568,
            -0.125568,
            -0.376704,
            -1.757952,
            -3.201984,
            -3.704256,
            -5.713344,
            -5.96448,
            -7.785216,
            -8.47584,
            -9.10368,
            -10.29658,
            -11.61504,
            -11.86618,
            -11.67782,
            -12.68237,
            -13.12186,
            -14.25197,
            -14.5031,
            -15.44486,
            -15.88435,
            -16.8889,
            -17.2656,
            -17.95622,
            -19.14912,
            -19.46304,
            -19.96531,
            -20.84429,
            -20.4048,
            -21.40934,
            -22.3511,
            -21.53491,
            -23.544,
            -24.92525,
            -25.30195,
            -25.74144,
            -26.99712,
            -27.8761,
            -27.68774,
            -29.25734,
            -30.95251,
            -31.51757,
            -33.02438,
            -33.90336,
            -35.41018,
            -36.60307,
            -36.4775,
            -39.17722,
            -40.24454,
            -42.25363,
            -42.19085,
            -43.63488,
            -45.76954,
            -46.58573,
            -48.2809,
            -48.97152,
            -50.35277,
            -51.29453,
            -53.30362,
            -54.11981,
            -54.43373,
            -56.25446,
            -57.38457,
            -59.01696,
            -60.46099,
            -61.2144,
            -62.34451,
            -62.97235,
            -64.3536,
            -65.73485,
            -66.7394,
            -68.37177,
            -68.93683,
            -69.87859,
            -71.44819,
            -72.07603,
            -73.14336,
            -74.65018,
            -74.21069,
            -76.09421,
            -77.2871,
            -77.66381,
            -78.41721,
            -79.35898,
            -80.0496,
            -80.67744,
            -80.55187,
            -80.99136,
            -81.74477,
            -81.43085,
            -82.18426,
            -81.9959,
            -81.17971,
            -80.86579,
            -81.17971,
            -79.48454,
            -79.86124,
            -79.61012,
            -78.04051,
            -78.41721,
            -78.04051,
            -76.59648,
            -76.47091,
            -76.40813,
            -76.59648,
            -74.5246,
            -74.71296,
            -73.08057,
            -72.82944,
            -72.70387,
            -71.32262,
            -70.75757,
            -69.37632,
            -69.37632,
            -68.99962,
            -67.17888,
            -67.55559,
            -67.17888,
            -65.60928,
            -65.54649,
            -65.79763,
            -63.97689,
            -63.72576,
            -63.78854,
            -62.34451,
            -62.34451,
            -61.84224,
            -60.46099,
            -60.27264,
            -58.82861,
            -58.38912,
            -58.57747,
            -57.07066,
            -56.5056,
            -56.81952,
            -55.12435,
            -54.87321,
            -54.68486,
            -53.05248,
            -53.11526,
            -52.92691,
            -51.35731,
            -51.16896,
            -48.53203,
            -45.95789,
            -45.1417,
            -42.44198,
            -41.81414,
            -39.67949,
            -38.61216,
            -37.04256,
            -36.1008,
            -34.28006,
            -33.27552,
            -31.70592,
            -30.70138,
            -29.25734,
            -28.50394,
            -27.68774,
            -26.18093,
            -25.36474,
            -24.7369,
            -23.23008,
            -22.41389,
            -21.03264,
            -19.58861,
            -18.77242,
            -17.45395,
            -16.70054,
            -16.19827,
            -14.62867,
            -13.87526,
            -13.05907,
            -11.67782,
            -10.73606,
            -10.04544,
            -8.538624,
            -7.785216,
            -7.094592,
            -5.085504,
            -4.39488,
            -2.950848,
            -2.385792,
            -1.632384,
            -0.376704,
            0.816192,
            1.130112,
            2.323008,
            2.950848,
            3.327552,
            3.829824,
            4.959936,
            5.96448,
            6.529536,
            7.471296,
            8.538624,
            8.978112,
            10.04544,
            10.86163,
            11.55226,
            11.74061,
            12.61958,
            13.49856,
            14.1264,
            14.5031,
            14.87981,
            15.696,
            16.00992,
            16.63776,
            16.51219,
            17.2656,
            17.89344,
            18.4585,
            18.96077,
            19.40026,
            19.65139,
            20.15366,
            21.15821,
            21.78605,
            22.22554,
            22.53946,
            23.1673,
            24.10906,
            24.61133,
            25.17638,
            25.55309,
            25.61587,
            26.55763,
            27.56218,
            28.31558,
            28.94342,
            29.88518,
            30.70138,
            31.70592,
            31.95706,
            33.71501,
            35.03347,
            35.91245,
            36.97977,
            37.98432,
            38.29824,
            40.24454,
            41.37466,
            42.3792,
            42.44198,
            43.63488,
            44.76499,
            45.70675,
            46.77408,
            47.77863,
            47.59027,
            48.72038,
            49.72493,
            50.66669,
            51.48288,
            52.23629,
            51.92237,
            53.49197,
            53.49197,
            54.05702,
            54.49651,
            55.3127,
            56.06611,
            55.81498,
            55.81498,
            57.07066,
            57.25901,
            57.44736,
            57.51014,
            57.19622,
            58.38912,
            58.0752,
            57.63571,
            58.57747,
            57.82406,
            58.4519,
            58.01242,
            58.38912,
            57.88685,
            57.63571,
            56.88231,
            56.63117,
            56.06611,
            56.25446,
            55.81498,
            56.44282,
            55.50106,
            54.81043,
            54.30816,
            54.81043,
            53.7431,
            53.05248,
            53.42918,
            52.67578,
            51.85958,
            52.36185,
            51.67123,
            50.47834,
            49.72493,
            50.16442,
            49.34822,
            48.53203,
            47.33913,
            46.89965,
            43.76045,
            42.00249,
            39.99341,
            37.85875,
            35.72409,
            33.84058,
            31.70592,
            29.69683,
            28.12723,
            26.18093,
            24.61133,
            23.1673,
            21.34656,
            19.65139,
            17.89344,
            16.44941,
            15.19373,
            13.87526,
            11.92896,
            10.67328,
            9.292032,
            7.910784,
            6.403968,
            5.587776,
            3.829824,
            3.829824,
            2.009088,
            0.439488,
            0.376704,
            -1.192896,
            -2.385792,
            -3.327552,
            -4.520448,
            -5.587776,
            -6.529536,
            -7.471296,
            -8.350272,
            -9.166464,
            -10.35936,
            -11.23834,
            -11.86618,
            -12.30566,
            -13.24742,
            -14.00083,
            -14.5031,
            -15.00538,
            -15.63322,
            -16.63776,
            -17.20282,
            -17.6423,
            -18.27014,
            -19.2119,
            -19.65139,
            -20.0281,
            -20.21645,
            -20.59315,
            -21.03264,
            -21.34656,
            -21.72326,
            -22.22554,
            -22.72781,
            -23.23008,
            -23.60678,
            -24.7369,
            -25.30195,
            -25.67866,
            -26.87155,
            -27.49939,
            -27.93888,
            -28.50394,
            -29.69683,
            -30.51302,
            -31.14086,
            -31.70592,
            -32.89882,
            -33.71501,
            -34.21728,
            -35.66131,
            -36.28915,
            -36.97977,
            -37.60762,
            -38.17267,
            -38.80051,
            -39.42835,
            -40.74681,
            -41.37466,
            -42.00249,
            -42.56755,
            -43.13261,
            -43.76045,
            -44.13715,
            -44.70221,
            -45.20448,
            -46.08345,
            -46.58573,
            -46.96243,
            -47.33913,
            -47.90419,
            -48.09254,
            -48.46925,
            -48.72038,
            -49.28544,
            -49.66214,
            -49.72493,
            -50.28999,
            -50.54112,
            -50.72947,
            -50.91782,
            -51.04339,
            -51.35731,
            -51.54567,
            -51.67123,
            -51.92237,
            -51.73402,
            -51.67123,
            -51.85958,
            -51.73402,
            -51.67123,
            -51.67123,
            -51.48288,
            -51.48288,
            -51.48288,
            -51.29453,
            -51.10617,
            -50.85504,
            -50.72947,
            -50.35277,
            -50.28999,
            -50.10163,
            -49.85049,
            -49.47379,
            -49.15987,
            -48.97152,
            -48.34368,
            -47.52749,
            -47.59027,
            -47.27635,
            -46.96243,
            -46.58573,
            -46.14624,
            -45.70675,
            -45.20448,
            -44.70221,
            -44.38829,
            -43.9488,
            -43.50931,
            -43.13261,
            -42.44198,
            -42.12806,
            -41.62579,
            -41.1863,
            -40.8096,
            -40.37011,
            -37.85875,
            -34.71955,
            -33.08717,
            -31.83149,
            -30.32467,
            -28.94342,
            -27.68774,
            -26.3065,
            -25.1136,
            -23.73235,
            -22.53946,
            -20.34202,
            -19.33747,
            -17.01446,
            -15.88435,
            -14.81702,
            -13.62413,
            -12.61958,
            -10.35936,
            -9.480384,
            -7.094592,
            -5.96448,
            -3.892608,
            -2.699712,
            -0.816192,
            0.188352,
            1.381248,
            2.009088,
            2.19744,
            3.829824,
            4.7088,
            5.524992,
            6.969024,
            7.722432,
            8.350272,
            9.10368,
            9.857088,
            10.54771,
            11.11277,
            12.24288,
            12.74515,
            13.05907,
            13.68691,
            14.62867,
            15.50765,
            15.696,
            16.00992,
            17.2656,
            17.39117,
            17.6423,
            17.83066,
            18.20736,
            18.64685,
            18.77242,
            19.02355,
            19.46304,
            19.65139,
            20.21645,
            20.15366,
            20.46758,
            21.03264,
            21.5977,
            21.84883,
            22.22554,
            22.41389,
            22.79059,
            23.60678,
            24.17184,
            24.98803,
            25.4903,
            26.3065,
            26.74598,
            27.31104,
            28.31558,
            28.75507,
            29.32013,
            29.69683,
            30.76416,
            31.70592,
            32.27098,
            32.83603,
            33.08717,
            34.21728,
            34.5312,
            35.03347,
            35.47296,
            35.91245,
            36.41472,
            36.85421,
            37.60762,
            37.98432,
            38.42381,
            38.80051,
            39.17722,
            39.42835,
            39.80506,
            40.18176,
            40.4329,
            40.8096,
            40.99795,
            41.1863,
            41.56301,
            41.75136,
            42.00249,
            42.25363,
            42.56755,
            42.75591,
            43.00704,
            43.19539,
            43.19539,
            43.32096,
            43.44653,
            43.5721,
            43.5721,
            43.63488,
            43.63488,
            43.76045,
            43.5721,
            43.63488,
            43.63488,
            43.5721,
            43.5721,
            43.38374,
            43.19539,
            42.94426,
            42.94426,
            42.75591,
            42.3792,
            42.3792,
            41.93971,
            42.00249,
            41.75136,
            41.37466,
            41.1863,
            40.8096,
            40.62125,
            40.37011,
            40.18176,
            39.99341,
            39.6167,
            39.17722,
            38.8633,
            38.61216,
            38.29824,
            38.17267,
            37.85875,
            35.72409,
            36.1008,
            32.83603,
            30.95251,
            28.75507,
            26.93434,
            25.1136,
            23.544,
            21.9744,
            20.34202,
            18.8352,
            17.39117,
            16.0727,
            14.81702,
            12.74515,
            11.92896,
            9.668736,
            8.287488,
            7.094592,
            6.152832,
            4.583232,
            3.829824,
            1.820736,
            1.5696,
            0.251136,
            -1.318464,
            -2.19744,
            -4.143744,
            -5.085504,
            -6.152832,
            -6.90624,
            -7.848,
            -9.354816,
            -10.04544,
            -10.67328,
            -11.30112,
            -12.61958,
            -13.05907,
            -14.06362,
            -15.25651,
            -15.696,
            -16.63776,
            -17.6423,
            -18.14458,
            -18.4585,
            -19.14912,
            -20.21645,
            -21.03264,
            -21.72326,
            -22.72781,
            -23.1673,
            -23.544,
            -23.41843,
            -23.544,
            -23.73235,
            -24.29741,
            -24.79968,
            -24.92525,
            -25.30195,
            -25.67866,
            -26.3065,
            -26.49485,
            -26.87155,
            -27.31104,
            -27.93888,
            -28.12723,
            -28.56672,
            -28.88064,
            -29.13178,
            -29.75962,
            -29.94797,
            -30.26189,
            -30.51302,
            -30.88973,
            -31.32922,
            -31.51757,
            -31.89427,
            -32.08262,
            -32.83603,
            -32.83603,
            -33.08717,
            -34.02893,
            -34.28006,
            -34.59398,
            -35.09626,
            -35.41018,
            -35.78688,
            -35.97523,
            -36.60307,
            -36.66586,
            -37.04256,
            -37.23091,
            -37.48205,
            -37.6704,
            -37.79597,
            -37.85875,
            -38.17267,
            -38.17267,
            -38.42381,
            -38.61216,
            -38.80051,
            -38.8633,
            -38.8633,
            -39.05165,
            -39.05165,
            -39.05165,
            -39.17722,
            -39.24,
            -39.24,
            -39.24,
            -39.24,
            -39.17722,
            -39.24,
            -39.24,
            -39.17722,
            -38.98886,
            -38.8633,
            -38.8633,
            -38.67495,
            -38.42381,
            -38.23545,
            -38.0471,
            -37.98432,
            -37.79597,
            -37.48205,
            -37.23091,
            -36.97977,
            -36.85421,
            -36.66586,
            -36.41472,
            -34.78234,
            -35.03347,
            -33.90336,
            -34.02893,
            -33.21273,
            -33.27552,
            -33.40109,
            -32.52211,
            -32.52211,
            -31.70592,
            -31.89427,
            -31.14086,
            -31.14086,
            -31.14086,
            -30.32467,
            -30.51302,
            -29.50848,
            -29.63405,
            -28.75507,
            -28.31558,
            -24.92525,
            -23.60678,
            -21.72326,
            -20.84429,
            -19.14912,
            -18.20736,
            -16.57498,
            -15.82157,
            -14.18918,
            -13.68691,
            -12.87072,
            -11.23834,
            -10.54771,
            -9.543168,
            -8.099136,
            -6.717888,
            -5.776128,
            -4.583232,
            -3.704256,
            -3.1392,
            -1.381248,
            -0.62784,
            -0.188352,
            0.94176,
            2.009088,
            1.946304,
            3.578688,
            4.7088,
            5.33664,
            6.341184,
            7.471296,
            8.16192,
            9.292032,
            10.10822,
            10.86163,
            11.55226,
            12.43123,
            12.68237,
            12.9335,
            14.31475,
            15.19373,
            15.19373,
            16.26106,
            17.07725,
            17.89344,
            18.4585,
            19.08634,
            20.21645,
            20.4048,
            20.7815,
            20.21645,
            21.03264,
            20.84429,
            20.84429,
            22.03718,
            21.9744,
            21.9744,
            22.22554,
            23.1673,
            22.79059,
            22.91616,
            23.1673,
            24.17184,
            24.36019,
            24.61133,
            24.61133,
            24.79968,
            25.61587,
            25.61587,
            26.36928,
            25.80422,
            26.11814,
            26.18093,
            27.49939,
            27.18547,
            27.31104,
            28.50394,
            28.56672,
            28.94342,
            28.50394,
            29.50848,
            29.69683,
            29.57126,
            30.32467,
            30.76416,
            30.63859,
            31.51757,
            30.88973,
            32.08262,
            31.89427,
            31.89427,
            32.71046,
            32.45933,
            32.52211,
            32.45933,
            33.08717,
            33.02438,
            32.83603,
            33.71501,
            33.46387,
            33.08717,
            34.09171,
            33.27552,
            34.02893,
            34.02893,
            33.3383,
            33.02438,
            33.84058,
            33.3383,
            32.71046,
            33.3383,
            32.71046,
            32.14541,
            31.70592,
            32.08262,
            31.26643,
            31.32922,
            30.76416,
            31.45478,
            30.45024,
            29.75962,
            30.13632,
            29.50848,
            28.56672,
            28.88064,
            28.12723,
            28.69229,
            27.93888,
            27.31104,
            27.68774,
            26.55763,
            26.99712,
            25.99258,
            26.18093,
            25.36474,
            24.61133,
            22.60224,
            19.96531,
            18.64685,
            16.38662,
            15.3193,
            13.49856,
            12.68237,
            10.29658,
            9.354816,
            7.471296,
            6.529536,
            4.771584,
            4.332096,
            2.448576,
            2.134656,
            0.753408,
            -0.565056,
            -1.318464,
            -2.762496,
            -3.704256,
            -4.206528,
            -5.713344,
            -6.529536,
            -7.157376,
            -8.47584,
            -9.354816,
            -9.857088,
            -11.11277,
            -11.86618,
            -12.30566,
            -13.31021,
            -14.25197,
            -14.69146,
            -15.19373,
            -15.63322,
            -16.44941,
            -17.20282,
            -17.6423,
            -18.27014,
            -19.2119,
            -19.77696,
            -20.34202,
            -21.03264,
            -21.72326,
            -22.53946,
            -22.79059,
            -23.60678,
            -24.36019,
            -25.1136,
            -25.17638,
            -25.55309,
            -25.74144,
            -26.18093,
            -26.55763,
            -26.93434,
            -27.24826,
            -27.49939,
            -27.75053,
            -27.93888,
            -28.06445,
            -28.31558,
            -28.31558,
            -28.69229,
            -28.75507,
            -29.06899,
            -29.25734,
            -29.50848,
            -29.63405,
            -29.69683,
            -29.88518,
            -30.13632,
            -30.13632,
            -30.26189,
            -30.32467,
            -30.45024,
            -30.51302,
            -30.51302,
            -30.70138,
            -30.88973,
            -31.07808,
            -31.07808,
            -31.26643,
            -31.32922,
            -31.32922,
            -31.51757,
            -31.70592,
            -31.64314,
            -31.83149,
            -31.89427,
            -31.70592,
            -31.70592,
            -31.70592,
            -31.89427,
            -31.89427,
            -31.89427,
            -31.83149,
            -31.89427,
            -31.64314,
            -31.51757,
            -31.51757,
            -31.64314,
            -31.45478,
            -31.45478,
            -31.32922,
            -31.26643,
            -31.0153,
            -30.82694,
            -30.51302,
            -30.51302,
            -29.8224,
            -29.8224,
            -28.44115,
            -27.31104,
            -27.75053,
            -27.0599,
            -27.24826,
            -26.49485,
            -26.55763,
            -25.67866,
            -25.99258,
            -25.17638,
            -24.48576,
            -24.7369,
            -23.9207,
            -23.41843,
            -23.35565,
            -22.91616,
            -22.09997,
            -21.9744,
            -22.09997,
            -21.34656,
            -21.53491,
            -20.71872,
            -19.96531,
            -19.58861,
            -18.01901,
            -17.01446,
            -15.06816,
            -14.18918,
            -12.30566,
            -11.80339,
            -10.04544,
            -9.292032,
            -8.726976,
            -7.157376,
            -6.529536,
            -5.776128,
            -4.332096,
            -3.578688,
            -2.762496,
            -1.381248,
            -0.565056,
            -0.188352,
            0.753408,
            1.820736,
            1.946304,
            3.201984,
            4.520448,
            5.02272,
            6.403968,
            7.596864,
            8.287488,
            9.354816,
            10.73606,
            11.04998,
            11.74061,
            12.9335,
            13.49856,
            14.1264,
            15.06816,
            16.19827,
            16.70054,
            18.01901,
            18.8352,
            19.2119,
            20.0281,
            21.15821,
            21.5977,
            22.03718,
            23.04173,
            23.98349,
            24.23462,
            24.7369,
            23.60678,
            23.9207,
            24.79968,
            24.79968,
            24.61133,
            24.79968,
            26.11814,
            25.92979,
            25.92979,
            26.74598,
            26.49485,
            26.49485,
            26.49485,
            27.31104,
            27.18547,
            27.12269,
            27.49939,
            27.75053,
            27.93888,
            28.19002,
            28.12723,
            28.37837,
            28.37837,
            27.93888,
            28.88064,
            28.37837,
            28.50394,
            28.94342,
            28.56672,
            29.32013,
            28.75507,
            29.32013,
            29.50848,
            28.69229,
            28.56672,
            29.57126,
            29.38291,
            29.13178,
            28.75507,
            28.37837,
            29.38291,
            28.94342,
            28.94342,
            29.25734,
            28.94342,
            28.06445,
            28.88064,
            28.69229,
            27.8761,
            28.56672,
            27.49939,
            27.37382,
            27.8761,
            27.18547,
            26.93434,
            27.37382,
            26.18093,
            26.49485,
            25.55309,
            26.11814,
            25.55309,
            24.54854,
            25.1136,
            24.17184,
            23.544,
            24.10906,
            22.97894,
            23.23008,
            22.79059,
            21.84883,
            21.22099,
            21.78605,
            20.46758,
            20.96986,
            19.83974,
            20.21645,
            19.77696,
            18.58406,
            18.08179,
            17.2656,
            17.2656,
            16.26106,
            16.70054,
            16.0727,
            15.3193,
            14.62867,
            14.25197,
            13.05907,
            12.30566,
            12.24288,
            11.48947,
            11.67782,
            11.04998,
            11.11277,
            10.04544,
            9.73152,
            8.978112,
            8.78976,
            6.215616,
            4.897152,
            3.76704,
            -2.19744,
            -2.134656,
            -4.08096,
            -4.583232,
            -4.959936
        ]
    }
}