{
    "Name": "Galeota et al. 1996, CA3",
    "Type": "Rectangular",
    "fpc": 80.0,
    "fyt": 430.0,
    "fsut": 0.0,
    "fyl": 430.0,
    "fsul": 0.0,
    "Width": 250.0,
    "Depth": 250.0,
    "L_Inflection": 1140.0,
    "L_Measured": 1140.0,
    "TestConfiguration": "Double Ended",
    "AxLoad": 1000.0,
    "P_Delta": "Shear provided",
    "dlb": 10.0,
    "dlb_c": 10.0,
    "nlb": 12.0,
    "cc_per": 30.0,
    "nib_per": 2.0,
    "cc_par": 30.0,
    "nib_par": 2.0,
    "SubType": "RI: Rectangular and interlocking ties",
    "nsl": 4.0,
    "dtb_rcs": 8.0,
    "s_rcs": 50.0,
    "FailureType": "Flexure",
    "data": {
        "disp": [
            0.1,
            0.07,
            0.14,
            0.21,
            0.22,
            0.32,
            0.43,
            0.54,
            0.59,
            0.56,
            0.54,
            0.71,
            0.76,
            0.87,
            0.79,
            0.89,
            1.04,
            0.99,
            1.09,
            1.22,
            1.26,
            1.32,
            1.27,
            1.45,
            1.45,
            1.55,
            1.63,
            1.65,
            1.59,
            1.82,
            1.85,
            1.77,
            1.91,
            2.05,
            2.07,
            2.28,
            2.17,
            2.28,
            2.36,
            2.4,
            2.6,
            2.51,
            2.72,
            2.74,
            2.84,
            2.97,
            3.03,
            3.01,
            3.09,
            3.13,
            3.22,
            3.44,
            3.44,
            3.47,
            3.78,
            3.88,
            4.08,
            4.12,
            4.16,
            4.28,
            4.4,
            4.49,
            4.88,
            4.9,
            4.89,
            5.02,
            5.34,
            5.32,
            5.66,
            5.58,
            5.8,
            6.27,
            6.23,
            6.51,
            6.59,
            6.78,
            7.0,
            7.12,
            7.4,
            7.61,
            7.81,
            7.94,
            8.34,
            8.49,
            8.9,
            9.03,
            9.17,
            9.48,
            9.79,
            10.01,
            10.25,
            10.72,
            10.94,
            11.15,
            11.52,
            11.73,
            12.2,
            12.36,
            12.77,
            13.32,
            13.82,
            14.14,
            14.67,
            15.16,
            15.67,
            16.18,
            16.49,
            16.94,
            17.09,
            17.19,
            17.24,
            17.31,
            17.28,
            17.1,
            16.91,
            16.7,
            16.59,
            16.36,
            16.21,
            16.09,
            15.96,
            15.77,
            15.51,
            15.38,
            15.19,
            15.1,
            14.84,
            14.73,
            14.57,
            14.42,
            14.25,
            14.07,
            13.78,
            13.68,
            13.56,
            13.32,
            13.1,
            13.07,
            12.86,
            12.72,
            12.46,
            12.34,
            12.18,
            12.0,
            11.76,
            11.73,
            11.51,
            11.27,
            11.08,
            11.04,
            10.81,
            10.62,
            10.53,
            10.32,
            10.14,
            9.98,
            9.89,
            9.69,
            9.44,
            9.4,
            9.18,
            9.07,
            8.8,
            8.72,
            8.62,
            8.45,
            8.34,
            8.16,
            7.86,
            7.76,
            7.7,
            7.56,
            7.24,
            7.1,
            6.91,
            6.69,
            6.5,
            6.29,
            6.28,
            6.04,
            5.87,
            5.77,
            5.63,
            5.48,
            5.2,
            5.18,
            4.91,
            4.86,
            4.68,
            4.53,
            4.28,
            4.07,
            3.91,
            3.86,
            3.65,
            3.45,
            3.34,
            3.18,
            2.98,
            2.81,
            2.69,
            2.57,
            2.43,
            2.3,
            2.2,
            2.08,
            1.96,
            1.84,
            1.71,
            1.6,
            1.48,
            1.37,
            1.26,
            1.11,
            1.02,
            0.88,
            0.78,
            0.66,
            0.53,
            0.43,
            0.33,
            0.21,
            0.08,
            -0.03,
            -0.14,
            -0.27,
            -0.39,
            -0.51,
            -0.62,
            -0.73,
            -0.84,
            -0.97,
            -1.1,
            -1.2,
            -1.32,
            -1.44,
            -1.53,
            -1.64,
            -1.77,
            -1.9,
            -1.98,
            -2.09,
            -2.21,
            -2.36,
            -2.48,
            -2.59,
            -2.73,
            -2.88,
            -2.99,
            -3.12,
            -3.25,
            -3.39,
            -3.51,
            -3.72,
            -3.92,
            -4.13,
            -4.36,
            -4.57,
            -4.75,
            -5.01,
            -5.21,
            -5.46,
            -5.68,
            -5.92,
            -6.14,
            -6.39,
            -6.63,
            -6.98,
            -7.21,
            -7.45,
            -7.71,
            -8.0,
            -8.35,
            -8.69,
            -9.02,
            -9.35,
            -9.69,
            -10.02,
            -10.36,
            -10.7,
            -11.03,
            -11.41,
            -11.76,
            -12.08,
            -12.52,
            -12.97,
            -13.44,
            -13.87,
            -14.31,
            -14.85,
            -15.42,
            -15.96,
            -16.49,
            -17.08,
            -17.51,
            -18.07,
            -18.16,
            -18.1,
            -17.99,
            -17.84,
            -17.69,
            -17.54,
            -17.4,
            -17.27,
            -17.12,
            -16.8,
            -16.51,
            -16.25,
            -16.07,
            -15.82,
            -15.68,
            -15.38,
            -15.06,
            -14.89,
            -14.65,
            -14.5,
            -14.18,
            -13.87,
            -13.61,
            -13.31,
            -13.03,
            -12.73,
            -12.42,
            -12.12,
            -11.82,
            -11.56,
            -11.27,
            -10.96,
            -10.65,
            -10.36,
            -10.06,
            -9.78,
            -9.48,
            -9.15,
            -9.04,
            -8.79,
            -8.63,
            -8.35,
            -8.09,
            -7.81,
            -7.52,
            -7.25,
            -6.99,
            -6.67,
            -6.44,
            -6.15,
            -6.02,
            -5.74,
            -5.44,
            -5.18,
            -4.88,
            -4.61,
            -4.51,
            -4.23,
            -3.99,
            -3.74,
            -3.48,
            -3.22,
            -2.97,
            -2.72,
            -2.5,
            -2.31,
            -2.11,
            -1.91,
            -1.79,
            -1.69,
            -1.6,
            -1.5,
            -1.39,
            -1.28,
            -1.07,
            -0.89,
            -0.74,
            -0.6,
            -0.46,
            -0.38,
            -0.22,
            -0.07,
            0.11,
            0.38,
            0.52,
            0.59,
            0.9,
            0.93,
            1.07,
            1.49,
            1.6,
            1.66,
            1.81,
            2.1,
            2.14,
            2.28,
            2.33,
            2.53,
            2.73,
            2.83,
            3.04,
            3.22,
            3.34,
            3.53,
            3.65,
            3.8,
            3.9,
            4.04,
            4.21,
            4.46,
            4.55,
            4.74,
            5.14,
            5.42,
            5.75,
            6.04,
            6.33,
            6.88,
            7.0,
            7.5,
            7.84,
            8.04,
            8.49,
            8.93,
            9.16,
            9.55,
            9.86,
            10.26,
            10.53,
            10.92,
            11.25,
            11.64,
            12.03,
            12.38,
            12.86,
            13.24,
            13.83,
            14.44,
            15.06,
            15.54,
            16.07,
            16.68,
            17.44,
            18.0,
            18.54,
            19.2,
            19.72,
            20.4,
            20.95,
            21.59,
            22.19,
            22.71,
            23.37,
            23.87,
            24.44,
            25.08,
            25.75,
            26.41,
            27.13,
            27.8,
            28.53,
            29.26,
            29.91,
            30.43,
            31.07,
            31.39,
            31.91,
            32.48,
            33.08,
            33.6,
            34.26,
            34.86,
            35.42,
            35.95,
            36.46,
            36.46,
            36.48,
            36.98,
            37.06,
            36.85,
            36.59,
            36.62,
            36.31,
            36.22,
            36.07,
            35.81,
            35.78,
            35.57,
            35.44,
            35.21,
            35.07,
            34.97,
            34.79,
            34.56,
            34.56,
            34.26,
            34.13,
            33.74,
            33.3,
            32.93,
            32.89,
            32.41,
            32.17,
            31.79,
            31.45,
            31.21,
            30.77,
            30.48,
            30.19,
            29.97,
            29.57,
            29.34,
            29.2,
            28.91,
            28.67,
            28.24,
            27.9,
            27.72,
            27.67,
            27.16,
            27.01,
            26.57,
            26.32,
            26.1,
            25.74,
            25.44,
            25.05,
            24.65,
            24.31,
            23.91,
            23.58,
            23.14,
            22.78,
            22.26,
            21.85,
            21.4,
            20.76,
            20.24,
            19.71,
            19.16,
            18.57,
            18.03,
            17.47,
            16.9,
            16.33,
            15.74,
            15.16,
            14.6,
            13.97,
            13.41,
            12.82,
            12.24,
            11.68,
            11.13,
            10.54,
            10.0,
            9.43,
            8.9,
            8.32,
            7.75,
            7.22,
            6.69,
            6.15,
            5.6,
            5.25,
            4.91,
            4.59,
            4.28,
            3.92,
            3.62,
            3.26,
            2.93,
            2.61,
            2.31,
            1.98,
            1.63,
            1.4,
            1.05,
            0.75,
            0.44,
            0.15,
            -0.15,
            -0.45,
            -0.77,
            -1.07,
            -1.35,
            -1.65,
            -1.97,
            -2.26,
            -2.55,
            -2.84,
            -3.13,
            -3.45,
            -3.75,
            -4.08,
            -4.39,
            -4.66,
            -4.99,
            -5.29,
            -5.62,
            -5.92,
            -6.21,
            -6.55,
            -6.88,
            -7.18,
            -7.52,
            -7.86,
            -8.19,
            -8.51,
            -8.84,
            -9.19,
            -9.7,
            -10.19,
            -10.55,
            -11.06,
            -11.58,
            -12.12,
            -12.67,
            -13.21,
            -13.77,
            -14.32,
            -14.93,
            -15.44,
            -16.03,
            -16.62,
            -17.18,
            -17.79,
            -18.36,
            -19.01,
            -19.65,
            -20.24,
            -20.92,
            -21.58,
            -22.24,
            -22.93,
            -23.61,
            -24.27,
            -24.96,
            -25.64,
            -26.34,
            -27.02,
            -27.68,
            -28.37,
            -28.93,
            -29.53,
            -30.18,
            -30.78,
            -31.39,
            -31.95,
            -32.56,
            -33.2,
            -33.77,
            -34.29,
            -34.82,
            -35.41,
            -35.7,
            -35.77,
            -36.34,
            -36.87,
            -37.37,
            -37.5,
            -37.37,
            -37.15,
            -36.84,
            -36.59,
            -36.22,
            -35.97,
            -35.69,
            -35.37,
            -35.03,
            -34.76,
            -34.45,
            -34.17,
            -33.85,
            -33.54,
            -33.22,
            -32.88,
            -32.6,
            -32.29,
            -31.92,
            -31.77,
            -31.45,
            -30.96,
            -30.7,
            -30.38,
            -30.06,
            -29.73,
            -29.43,
            -29.17,
            -28.86,
            -28.48,
            -28.2,
            -27.9,
            -27.59,
            -27.28,
            -26.97,
            -26.66,
            -26.37,
            -26.04,
            -25.72,
            -25.4,
            -25.1,
            -24.76,
            -24.45,
            -24.1,
            -23.77,
            -23.27,
            -22.72,
            -22.18,
            -21.64,
            -21.08,
            -20.53,
            -19.98,
            -19.42,
            -18.86,
            -18.28,
            -17.72,
            -17.16,
            -16.62,
            -16.04,
            -15.48,
            -14.93,
            -14.36,
            -13.82,
            -13.3,
            -12.77,
            -12.24,
            -11.68,
            -11.22,
            -10.66,
            -10.08,
            -9.5,
            -8.97,
            -8.38,
            -7.85,
            -7.35,
            -6.84,
            -6.34,
            -5.94,
            -5.54,
            -5.14,
            -4.64,
            -4.48,
            -4.02,
            -3.73,
            -3.37,
            -3.03,
            -2.83,
            -2.45,
            -2.06,
            -1.89,
            -1.5,
            -1.3,
            -1.02,
            -0.69,
            -0.58,
            -0.17,
            0.17,
            0.51,
            0.8,
            1.07,
            1.57,
            1.86,
            2.2,
            2.59,
            2.78,
            3.33,
            3.55,
            3.9,
            4.37,
            4.78,
            5.16,
            5.49,
            5.94,
            6.22,
            6.61,
            7.28,
            7.83,
            8.46,
            8.96,
            9.47,
            10.02,
            10.52,
            11.16,
            11.67,
            12.18,
            12.68,
            13.31,
            13.81,
            14.59,
            15.11,
            15.83,
            16.34,
            16.92,
            17.48,
            18.22,
            18.76,
            19.31,
            19.94,
            20.47,
            21.11,
            21.61,
            22.14,
            22.84,
            23.42,
            24.16,
            24.75,
            25.37,
            26.18,
            26.8,
            27.49,
            28.08,
            28.58,
            29.31,
            29.97,
            30.64,
            31.21,
            31.81,
            32.47,
            33.15,
            33.93,
            34.47,
            35.01,
            35.52,
            36.1,
            36.65,
            36.71,
            37.11,
            36.92,
            36.62,
            36.62,
            36.42,
            36.21,
            36.08,
            35.96,
            35.74,
            35.45,
            35.34,
            35.25,
            35.14,
            34.83,
            34.78,
            34.59,
            34.32,
            34.04,
            33.95,
            33.57,
            33.4,
            33.24,
            33.11,
            32.72,
            32.62,
            32.23,
            31.9,
            31.58,
            31.32,
            30.89,
            30.73,
            30.21,
            30.12,
            29.88,
            29.55,
            29.19,
            28.98,
            28.63,
            28.39,
            28.19,
            27.92,
            27.48,
            27.32,
            27.01,
            26.73,
            26.46,
            26.17,
            25.73,
            25.46,
            25.08,
            24.74,
            24.44,
            24.05,
            23.61,
            23.16,
            22.68,
            22.15,
            21.59,
            20.99,
            20.4,
            19.78,
            19.18,
            18.58,
            17.95,
            17.33,
            16.7,
            16.06,
            15.42,
            14.79,
            14.16,
            13.54,
            12.87,
            12.24,
            11.62,
            10.98,
            10.34,
            9.69,
            9.09,
            8.47,
            7.88,
            7.26,
            6.66,
            6.06,
            5.48,
            4.88,
            4.31,
            3.76,
            3.41,
            3.02,
            2.64,
            2.29,
            1.92,
            1.54,
            1.19,
            0.83,
            0.48,
            0.13,
            -0.23,
            -0.6,
            -0.95,
            -1.3,
            -1.64,
            -2.0,
            -2.35,
            -2.71,
            -3.07,
            -3.43,
            -3.77,
            -4.12,
            -4.51,
            -4.89,
            -5.26,
            -5.63,
            -5.97,
            -6.33,
            -6.92,
            -7.3,
            -7.86,
            -8.45,
            -9.06,
            -9.66,
            -10.12,
            -10.67,
            -11.29,
            -11.86,
            -12.51,
            -13.12,
            -13.78,
            -14.4,
            -15.05,
            -15.67,
            -16.3,
            -16.96,
            -17.6,
            -18.28,
            -18.93,
            -19.58,
            -20.26,
            -20.92,
            -21.59,
            -22.23,
            -22.73,
            -23.4,
            -24.08,
            -24.76,
            -25.43,
            -25.93,
            -26.6,
            -27.28,
            -27.79,
            -28.49,
            -29.0,
            -29.73,
            -30.4,
            -30.91,
            -31.63,
            -32.35,
            -33.12,
            -33.81,
            -34.32,
            -35.04,
            -35.78,
            -36.51,
            -36.8,
            -37.13,
            -37.16,
            -37.69,
            -37.9,
            -37.66,
            -37.38,
            -37.08,
            -36.8,
            -36.55,
            -36.21,
            -35.98,
            -35.73,
            -35.5,
            -35.26,
            -35.09,
            -34.86,
            -34.65,
            -34.46,
            -34.23,
            -33.99,
            -33.84,
            -33.63,
            -33.4,
            -33.23,
            -32.95,
            -32.76,
            -32.51,
            -32.24,
            -31.96,
            -31.68,
            -31.43,
            -31.15,
            -30.9,
            -30.59,
            -30.44,
            -30.16,
            -29.9,
            -29.64,
            -29.35,
            -29.08,
            -28.86,
            -28.67,
            -28.42,
            -28.12,
            -27.88,
            -27.62,
            -27.35,
            -27.1,
            -26.79,
            -26.55,
            -26.28,
            -26.0,
            -25.75,
            -25.49,
            -25.2,
            -24.91,
            -24.65,
            -24.39,
            -23.86,
            -23.5,
            -23.09,
            -22.61,
            -22.1,
            -21.55,
            -21.01,
            -20.46,
            -19.93,
            -19.4,
            -18.83,
            -18.3,
            -17.77,
            -17.26,
            -16.75,
            -16.3,
            -15.77,
            -15.24,
            -14.61,
            -14.11,
            -13.61,
            -13.08,
            -12.58,
            -12.01,
            -11.43,
            -10.92,
            -10.38,
            -9.78,
            -9.27,
            -8.72,
            -8.18,
            -7.65,
            -7.17,
            -6.61,
            -6.11,
            -5.66,
            -5.12,
            -4.73,
            -4.22,
            -3.75,
            -3.28,
            -2.84,
            -2.45,
            -2.04,
            -1.65,
            -1.24,
            -0.92,
            -0.52,
            -0.2,
            0.1,
            0.51,
            0.87,
            1.23,
            1.56,
            1.92,
            2.31,
            2.68,
            3.07,
            3.47,
            3.85,
            4.25,
            4.64,
            5.03,
            5.53,
            6.05,
            6.55,
            7.06,
            7.57,
            8.09,
            8.59,
            9.11,
            9.63,
            10.15,
            10.67,
            11.2,
            11.72,
            12.27,
            12.8,
            13.4,
            13.95,
            14.49,
            15.06,
            15.64,
            16.23,
            16.83,
            17.41,
            18.01,
            18.62,
            19.12,
            19.66,
            20.25,
            20.81,
            21.31,
            21.84,
            22.37,
            22.93,
            23.47,
            24.01,
            24.55,
            25.12,
            25.77,
            26.42,
            27.06,
            27.71,
            28.35,
            28.99,
            29.61,
            30.13,
            30.72,
            31.23,
            31.76,
            32.32,
            32.87,
            33.37,
            33.87,
            34.42,
            34.99,
            35.49,
            36.02,
            36.52,
            37.05,
            37.07,
            36.86,
            36.6,
            36.42,
            36.21,
            36.0,
            35.79,
            35.58,
            35.36,
            35.17,
            34.95,
            34.74,
            34.54,
            34.33,
            34.12,
            33.92,
            33.71,
            33.51,
            33.29,
            33.09,
            32.88,
            32.68,
            32.46,
            32.27,
            32.07,
            31.86,
            31.65,
            31.29,
            30.99,
            30.69,
            30.34,
            30.14,
            29.94,
            29.57,
            29.24,
            28.91,
            28.56,
            28.18,
            27.9,
            27.68,
            27.35,
            27.02,
            26.71,
            26.42,
            26.12,
            25.64,
            25.27,
            24.89,
            24.55,
            24.08,
            23.72,
            23.31,
            22.66,
            22.0,
            21.5,
            20.8,
            20.08,
            19.34,
            18.63,
            18.12,
            17.61,
            16.87,
            16.37,
            15.87,
            15.36,
            14.85,
            14.33,
            13.83,
            13.29,
            12.72,
            12.19,
            11.61,
            11.04,
            10.48,
            9.9,
            9.34,
            8.77,
            8.21,
            7.64,
            7.08,
            6.52,
            5.98,
            5.45,
            4.9,
            4.38,
            3.84,
            3.32,
            2.77,
            2.24,
            1.74,
            1.2,
            0.66,
            0.15,
            -0.37,
            -0.87,
            -1.42,
            -1.94,
            -2.46,
            -2.99,
            -3.51,
            -4.05,
            -4.59,
            -5.14,
            -5.65,
            -6.18,
            -6.74,
            -7.28,
            -7.89,
            -8.45,
            -9.05,
            -9.61,
            -10.22,
            -10.81,
            -11.4,
            -11.97,
            -12.59,
            -13.2,
            -13.81,
            -14.43,
            -15.05,
            -15.67,
            -16.29,
            -16.91,
            -17.53,
            -18.16,
            -18.79,
            -19.43,
            -20.07,
            -20.69,
            -21.33,
            -21.97,
            -22.64,
            -23.25,
            -23.92,
            -24.6,
            -25.25,
            -25.9,
            -26.57,
            -27.25,
            -27.92,
            -28.59,
            -29.27,
            -29.93,
            -30.61,
            -31.33,
            -32.01,
            -32.7,
            -33.4,
            -34.1,
            -34.74,
            -35.09,
            -35.65,
            -36.18,
            -36.72,
            -37.22,
            -37.74,
            -38.05,
            -37.95,
            -37.82,
            -37.65,
            -37.44,
            -37.23,
            -37.03,
            -36.76,
            -36.5,
            -36.24,
            -36.01,
            -35.75,
            -35.45,
            -35.22,
            -34.96,
            -34.69,
            -34.45,
            -34.16,
            -33.9,
            -33.64,
            -33.35,
            -33.06,
            -32.8,
            -32.56,
            -32.27,
            -31.99,
            -31.72,
            -31.45,
            -31.18,
            -30.92,
            -30.67,
            -30.41,
            -30.11,
            -29.82,
            -29.57,
            -29.3,
            -29.03,
            -28.75,
            -28.49,
            -28.25,
            -27.99,
            -27.72,
            -27.45,
            -27.19,
            -26.93,
            -26.67,
            -26.39,
            -26.12,
            -25.84,
            -25.6,
            -25.31,
            -25.0,
            -24.38,
            -24.1,
            -23.5,
            -22.89,
            -22.3,
            -21.69,
            -21.07,
            -20.43,
            -19.84,
            -19.23,
            -18.55,
            -17.96,
            -17.34,
            -16.74,
            -16.06,
            -15.41,
            -14.73,
            -14.05,
            -13.37,
            -12.72,
            -12.07,
            -11.43,
            -10.78,
            -10.16,
            -9.51,
            -8.94,
            -8.33,
            -7.74,
            -7.24,
            -6.59,
            -6.05,
            -5.44,
            -4.84,
            -4.24,
            -3.64,
            -3.05,
            -2.46,
            -1.91,
            -1.36,
            -0.89,
            -0.36,
            0.16,
            0.67,
            1.21,
            1.77,
            2.33,
            2.93,
            3.52,
            4.14,
            4.77,
            5.4,
            6.04,
            6.68,
            7.34,
            7.98,
            8.62,
            9.31,
            9.96,
            10.61,
            11.3,
            11.96,
            12.61,
            13.3,
            13.99,
            14.67,
            15.33,
            16.01,
            16.72,
            17.4,
            18.11,
            18.81,
            19.52,
            20.23,
            20.95,
            21.66,
            22.38,
            23.09,
            23.79,
            24.5,
            25.22,
            25.95,
            26.65,
            27.38,
            28.11,
            28.81,
            29.55,
            30.27,
            31.01,
            31.75,
            32.47,
            33.21,
            33.95,
            34.67,
            35.39,
            36.09,
            36.71,
            36.99,
            37.03,
            36.97,
            36.62,
            36.32,
            36.02,
            35.71,
            35.42,
            35.12,
            34.82,
            34.53,
            34.23,
            33.92,
            33.63,
            33.34,
            33.04,
            32.74,
            32.46,
            32.18,
            31.94,
            31.71,
            31.5,
            31.29,
            31.02,
            30.71,
            30.43,
            30.16,
            29.9,
            29.64,
            29.4,
            29.11,
            28.83,
            28.45,
            28.22,
            27.97,
            27.71,
            27.35,
            27.1,
            26.72,
            26.34,
            26.06,
            25.7,
            25.34,
            24.92,
            24.33,
            23.66,
            22.98,
            22.28,
            21.54,
            20.73,
            19.97,
            19.23,
            18.52,
            17.76,
            16.97,
            16.19,
            15.38,
            14.6,
            13.81,
            13.0,
            12.23,
            11.44,
            10.65,
            9.88,
            9.08,
            8.32,
            7.55,
            6.79,
            6.06,
            5.33,
            4.61,
            3.88,
            3.14,
            2.45,
            1.75,
            1.06,
            0.34,
            -0.38,
            -1.07,
            -1.76,
            -2.46,
            -3.16,
            -3.88,
            -4.58,
            -5.3,
            -6.0,
            -6.73,
            -7.47,
            -8.22,
            -8.95,
            -9.73,
            -10.46,
            -11.24,
            -12.05,
            -12.81,
            -13.61,
            -14.4,
            -15.19,
            -15.99,
            -16.79,
            -17.6,
            -18.39,
            -19.19,
            -20.02,
            -20.83,
            -21.65,
            -22.5,
            -23.34,
            -24.18,
            -24.99,
            -25.87,
            -26.71,
            -27.56,
            -28.42,
            -29.26,
            -30.15,
            -31.02,
            -31.9,
            -32.82,
            -33.65,
            -34.27,
            -34.95,
            -35.54,
            -36.16,
            -36.82,
            -37.42,
            -38.01,
            -38.33,
            -38.43,
            -38.24,
            -37.91,
            -37.78,
            -37.45,
            -37.15,
            -36.82,
            -36.54,
            -36.23,
            -35.88,
            -35.55,
            -35.26,
            -34.92,
            -34.6,
            -34.26,
            -33.88,
            -33.59,
            -33.24,
            -32.86,
            -32.48,
            -32.15,
            -31.81,
            -31.44,
            -31.09,
            -30.75,
            -30.35,
            -30.0,
            -29.64,
            -29.29,
            -28.91,
            -28.53,
            -28.19,
            -27.83,
            -27.43,
            -27.11,
            -26.73,
            -26.33,
            -25.97,
            -25.59,
            -25.21,
            -24.8,
            -24.22,
            -23.62,
            -23.01,
            -22.49,
            -21.98,
            -21.44,
            -20.76,
            -20.12,
            -19.47,
            -18.79,
            -18.08,
            -17.42,
            -16.76,
            -16.08,
            -15.43,
            -14.7,
            -13.92,
            -13.36,
            -12.8,
            -12.17,
            -11.47,
            -10.87,
            -10.37,
            -9.74,
            -9.1,
            -8.29,
            -7.72,
            -7.13,
            -6.59,
            -5.93,
            -5.26,
            -4.6,
            -3.94,
            -3.28,
            -2.67,
            -2.05,
            -1.48,
            -0.92,
            -0.28,
            0.3,
            0.84,
            1.44,
            2.04,
            2.66,
            3.3,
            3.99,
            4.64,
            5.31,
            6.0,
            6.69,
            7.4,
            8.09,
            8.79,
            9.51,
            10.22,
            10.92,
            11.63,
            12.36,
            13.06,
            13.77,
            14.51,
            15.24,
            15.98,
            16.7,
            17.44,
            18.18,
            18.92,
            19.68,
            20.39,
            21.12,
            21.89,
            22.63,
            23.39,
            24.16,
            24.92,
            25.67,
            26.43,
            27.19,
            28.0,
            28.73,
            29.5,
            30.26,
            31.05,
            31.82,
            32.59,
            33.37,
            34.16,
            34.87,
            35.45,
            35.97,
            36.64,
            37.34,
            38.01,
            38.68,
            39.35,
            40.04,
            40.7,
            41.4,
            42.09,
            42.79,
            43.57,
            44.25,
            44.95,
            45.66,
            46.34,
            47.03,
            47.72,
            48.4,
            49.1,
            49.79,
            50.49,
            51.19,
            51.89,
            52.59,
            53.28,
            54.0,
            54.71,
            55.39,
            56.1,
            56.63,
            56.7,
            56.73,
            56.58,
            56.35,
            56.13,
            55.93,
            55.7,
            55.44,
            55.18,
            54.92,
            54.66,
            54.42,
            54.15,
            53.85,
            53.55,
            53.28,
            53.02,
            52.79,
            52.53,
            52.24,
            51.97,
            51.58,
            51.35,
            51.12,
            50.87,
            50.54,
            50.3,
            50.01,
            49.59,
            49.35,
            49.07,
            48.78,
            48.54,
            48.27,
            47.99,
            47.68,
            47.37,
            47.07,
            46.73,
            46.41,
            46.09,
            45.41,
            44.66,
            44.0,
            43.27,
            42.53,
            41.79,
            41.01,
            40.24,
            39.44,
            38.63,
            37.79,
            36.97,
            36.15,
            35.32,
            34.47,
            33.63,
            32.8,
            31.96,
            31.14,
            30.29,
            29.43,
            28.57,
            27.71,
            26.86,
            25.99,
            25.15,
            24.28,
            23.43,
            22.59,
            21.74,
            20.87,
            20.11,
            19.27,
            18.44,
            17.6,
            16.71,
            15.9,
            15.04,
            14.24,
            13.41,
            12.61,
            11.81,
            11.01,
            10.22,
            9.44,
            8.66,
            7.87,
            7.09,
            6.31,
            5.53,
            4.77,
            4.02,
            3.32,
            2.54,
            1.79,
            1.05,
            0.32,
            -0.47,
            -1.19,
            -1.97,
            -2.71,
            -3.48,
            -4.25,
            -5.05,
            -5.83,
            -6.61,
            -7.39,
            -8.18,
            -8.98,
            -9.79,
            -10.57,
            -11.41,
            -12.2,
            -13.01,
            -13.89,
            -14.71,
            -15.54,
            -16.41,
            -17.21,
            -18.06,
            -18.9,
            -19.82,
            -20.63,
            -21.53,
            -22.42,
            -23.3,
            -24.16,
            -25.06,
            -25.97,
            -26.87,
            -27.74,
            -28.66,
            -29.57,
            -30.5,
            -31.41,
            -32.34,
            -33.25,
            -34.16,
            -34.66,
            -35.64,
            -36.18,
            -37.15,
            -38.08,
            -39.02,
            -39.77,
            -40.56,
            -41.46,
            -42.41,
            -42.91,
            -43.43,
            -44.4,
            -45.35,
            -46.34,
            -47.26,
            -48.2,
            -49.12,
            -50.01,
            -50.91,
            -51.83,
            -52.75,
            -53.67,
            -54.51,
            -55.37,
            -56.19,
            -56.8,
            -57.39,
            -57.87,
            -58.37,
            -58.47,
            -58.37,
            -57.97,
            -57.62,
            -57.16,
            -56.79,
            -56.51,
            -56.15,
            -55.8,
            -55.45,
            -55.15,
            -54.82,
            -54.47,
            -54.11,
            -53.79,
            -53.44,
            -53.09,
            -52.74,
            -52.44,
            -52.09,
            -51.76,
            -51.46,
            -51.09,
            -50.86,
            -50.45,
            -50.07,
            -49.77,
            -49.43,
            -49.08,
            -48.71,
            -48.43,
            -48.14,
            -47.83,
            -47.41,
            -46.93,
            -46.32,
            -45.52,
            -44.71,
            -43.9,
            -43.14,
            -42.27,
            -41.36,
            -40.43,
            -39.46,
            -38.57,
            -38.06,
            -37.07,
            -36.56,
            -36.05,
            -35.08,
            -34.56,
            -34.04,
            -33.53,
            -33.01,
            -32.51,
            -31.98,
            -30.99,
            -30.45,
            -29.93,
            -29.43,
            -28.43,
            -27.93,
            -27.43,
            -26.91,
            -26.41,
            -25.91,
            -25.38,
            -24.87,
            -24.36,
            -23.81,
            -23.3,
            -22.77,
            -21.85,
            -21.33,
            -20.32,
            -19.79,
            -19.27,
            -18.28,
            -17.31,
            -16.34,
            -15.82,
            -14.85,
            -14.35,
            -13.37,
            -12.39,
            -11.43,
            -10.91,
            -9.97,
            -8.99,
            -8.05,
            -7.11,
            -6.16,
            -5.23,
            -4.32,
            -3.41,
            -2.5,
            -1.58,
            -0.65,
            0.25,
            1.15,
            2.07,
            3.01,
            3.92,
            4.87,
            5.8,
            6.74,
            7.69,
            8.64,
            9.62,
            10.58,
            11.08,
            12.05,
            13.01,
            13.51,
            14.5,
            15.49,
            16.05,
            16.55,
            17.52,
            18.12,
            18.62,
            19.12,
            19.63,
            20.14,
            20.64,
            21.63,
            22.14,
            23.14,
            23.65,
            24.18,
            24.68,
            25.18,
            25.72,
            26.22,
            26.73,
            27.37,
            27.87,
            28.49,
            29.38,
            29.9,
            30.42,
            30.94,
            31.45,
            31.96,
            32.98,
            33.5,
            34.01,
            34.53,
            35.07,
            35.6,
            36.13,
            36.68,
            37.22,
            37.75,
            38.28,
            38.83,
            39.35,
            39.89,
            40.42,
            40.97,
            41.52,
            42.06,
            42.62,
            43.15,
            43.66,
            44.2,
            44.75,
            45.28,
            45.81,
            46.35,
            46.87,
            47.41,
            47.93,
            48.47,
            49.01,
            49.55,
            50.1,
            50.64,
            51.2,
            51.75,
            52.27,
            52.81,
            53.34,
            53.88,
            54.41,
            54.95,
            55.49,
            56.01,
            56.57,
            57.1,
            57.63,
            58.19,
            58.73,
            59.29,
            59.9,
            60.54,
            61.2,
            61.77,
            62.31,
            62.31
        ],
        "force": [
            1.302277,
            2.405902,
            4.017195,
            5.49605,
            7.04113,
            8.519985,
            9.756045,
            10.85967,
            11.98537,
            13.30972,
            14.43542,
            15.56111,
            16.68681,
            18.09945,
            19.46795,
            20.77022,
            21.91799,
            23.24234,
            24.4784,
            25.91311,
            27.17125,
            28.62803,
            29.84202,
            31.34295,
            32.46864,
            33.66056,
            34.78626,
            36.15475,
            37.36874,
            38.80346,
            40.10573,
            41.67288,
            43.17381,
            44.3878,
            45.5135,
            46.63919,
            47.85318,
            49.00095,
            50.19285,
            51.40685,
            52.53255,
            53.65825,
            54.806,
            55.9538,
            57.0574,
            58.2714,
            59.90475,
            61.05255,
            62.5976,
            63.70125,
            65.2684,
            66.8576,
            68.3144,
            69.8153,
            71.3383,
            72.7068,
            74.11945,
            75.46585,
            76.7461,
            78.1808,
            79.3948,
            80.7412,
            81.9552,
            83.25745,
            84.40525,
            85.6413,
            87.1643,
            88.55485,
            89.68055,
            90.7842,
            92.1527,
            93.54325,
            94.7793,
            96.01535,
            97.16315,
            98.35505,
            99.50285,
            100.6285,
            102.0191,
            103.1227,
            104.3809,
            105.6832,
            106.8751,
            108.0891,
            109.281,
            110.4066,
            111.5544,
            112.6801,
            113.9162,
            115.1964,
            116.4103,
            117.6023,
            118.7942,
            120.0082,
            121.3104,
            122.4141,
            123.6943,
            124.82,
            126.1002,
            126.9389,
            128.175,
            129.2787,
            130.1395,
            131.2431,
            131.6183,
            130.5147,
            127.6894,
            118.3528,
            116.9622,
            115.8586,
            114.5783,
            113.4306,
            111.7531,
            110.0976,
            108.5305,
            107.0075,
            105.4845,
            103.9836,
            102.5047,
            101.0038,
            99.56905,
            98.11225,
            96.67755,
            95.24285,
            93.80815,
            92.3955,
            90.96075,
            89.5923,
            88.2017,
            86.767,
            85.4206,
            84.00795,
            82.61735,
            81.2268,
            79.90245,
            78.5119,
            77.1434,
            75.79695,
            74.42845,
            73.1262,
            71.7577,
            70.4113,
            69.06485,
            67.71845,
            66.41615,
            65.1139,
            63.76745,
            62.4652,
            61.18495,
            59.8606,
            58.55835,
            57.27815,
            55.99795,
            54.71775,
            53.41545,
            52.1573,
            50.85505,
            49.64105,
            48.44914,
            47.14686,
            45.95494,
            44.80717,
            43.57111,
            42.33506,
            41.14314,
            40.01744,
            38.8476,
            37.56739,
            36.37548,
            35.18356,
            33.96958,
            32.77766,
            31.32088,
            30.06274,
            28.53975,
            27.01674,
            25.49374,
            24.01488,
            22.58017,
            21.45447,
            20.3067,
            19.15893,
            17.96701,
            16.55437,
            15.11966,
            13.68495,
            12.31645,
            11.10247,
            9.60154,
            8.321335,
            7.173565,
            5.80507,
            4.23792,
            2.935642,
            1.434713,
            -0.0220725,
            -1.434713,
            -2.935642,
            -4.546935,
            -6.202375,
            -7.372215,
            -8.47584,
            -9.733975,
            -10.92589,
            -12.13988,
            -13.37593,
            -14.63407,
            -15.87013,
            -17.10619,
            -18.40846,
            -19.62245,
            -20.96888,
            -22.24908,
            -23.61757,
            -25.05229,
            -26.2442,
            -27.56855,
            -28.84875,
            -30.59249,
            -31.69611,
            -33.10875,
            -34.32274,
            -35.69123,
            -37.05973,
            -38.42823,
            -39.79672,
            -41.14314,
            -42.51163,
            -43.94635,
            -45.2707,
            -46.61712,
            -48.00769,
            -49.33204,
            -50.7226,
            -51.9366,
            -53.1285,
            -54.5632,
            -55.97585,
            -57.34435,
            -58.7349,
            -60.05925,
            -61.36155,
            -62.64175,
            -63.92195,
            -65.20215,
            -66.48235,
            -67.69635,
            -68.91035,
            -70.10225,
            -71.3383,
            -72.50815,
            -73.678,
            -74.84785,
            -76.5033,
            -78.0925,
            -79.6155,
            -81.0723,
            -82.5732,
            -84.00795,
            -85.4868,
            -86.8553,
            -88.2017,
            -89.52605,
            -90.8504,
            -92.08645,
            -93.2784,
            -94.4703,
            -95.905,
            -97.07485,
            -98.20055,
            -99.3704,
            -100.8272,
            -102.284,
            -103.6746,
            -105.0651,
            -106.3895,
            -107.6917,
            -109.0381,
            -110.2522,
            -111.4661,
            -112.7464,
            -113.8941,
            -115.0418,
            -116.2117,
            -117.536,
            -118.8825,
            -120.1627,
            -121.3767,
            -122.5465,
            -123.8708,
            -125.1069,
            -126.2105,
            -126.8065,
            -124.7317,
            -123.4957,
            -122.8556,
            -121.7299,
            -119.9419,
            -118.7721,
            -117.514,
            -116.2779,
            -115.1081,
            -113.9382,
            -112.8126,
            -111.7089,
            -109.4354,
            -107.2503,
            -104.9989,
            -103.8732,
            -101.8204,
            -100.6947,
            -98.5758,
            -96.45685,
            -95.33115,
            -93.2784,
            -92.17475,
            -90.16615,
            -88.02515,
            -85.9724,
            -83.9417,
            -81.91105,
            -79.8583,
            -77.80555,
            -75.70865,
            -73.81045,
            -71.71355,
            -69.79325,
            -67.87295,
            -66.0409,
            -64.0544,
            -62.1341,
            -60.1255,
            -58.1831,
            -56.13035,
            -54.93845,
            -53.0623,
            -51.9366,
            -49.97214,
            -47.76489,
            -45.75629,
            -43.63734,
            -41.56252,
            -39.42149,
            -37.30252,
            -35.16149,
            -33.13082,
            -32.0272,
            -30.10689,
            -28.0983,
            -25.95726,
            -23.90452,
            -21.87385,
            -20.77022,
            -18.73956,
            -16.66474,
            -14.54578,
            -12.51511,
            -10.44029,
            -8.36548,
            -6.26859,
            -4.23792,
            -2.339685,
            -0.5518125,
            0.7283925,
            1.876163,
            3.17844,
            4.436573,
            5.65056,
            6.77626,
            7.901955,
            9.9547,
            11.89708,
            13.35386,
            14.72236,
            16.06878,
            17.50349,
            19.24722,
            20.88058,
            23.17612,
            25.14058,
            27.01674,
            28.98119,
            31.16637,
            32.29207,
            34.1903,
            36.1989,
            38.16336,
            39.31113,
            41.51837,
            42.7765,
            43.96842,
            45.22655,
            46.50676,
            47.74281,
            49.06717,
            50.3915,
            51.6276,
            52.84155,
            54.0335,
            55.2916,
            56.4394,
            57.65335,
            58.80115,
            59.90475,
            61.0746,
            63.3922,
            64.9152,
            66.41615,
            68.51305,
            70.5437,
            72.53025,
            74.4064,
            76.3488,
            78.0925,
            79.9245,
            81.57995,
            83.3016,
            84.95705,
            86.54625,
            88.09135,
            89.5702,
            91.0932,
            92.5279,
            94.00675,
            95.37525,
            96.7217,
            97.97985,
            99.3704,
            100.5844,
            101.7542,
            103.3214,
            104.425,
            105.948,
            107.3385,
            108.7733,
            110.0094,
            110.6495,
            111.4882,
            111.9958,
            111.8413,
            111.8193,
            111.4882,
            111.0688,
            110.4066,
            110.0094,
            109.4134,
            108.7733,
            108.1553,
            107.3385,
            106.7647,
            105.8156,
            105.2637,
            104.3147,
            103.5641,
            102.7254,
            101.6439,
            100.8272,
            99.8339,
            98.8627,
            98.3109,
            97.0528,
            95.9271,
            95.30905,
            94.6248,
            93.94055,
            93.2563,
            92.3955,
            91.68915,
            90.89455,
            90.03375,
            89.45985,
            88.31205,
            87.1643,
            87.3188,
            85.1557,
            83.83135,
            82.507,
            81.20475,
            79.9466,
            78.71055,
            77.49655,
            76.21635,
            75.06855,
            73.87665,
            72.66265,
            71.47075,
            70.34505,
            69.109,
            67.93915,
            66.72515,
            65.59945,
            64.4517,
            62.17825,
            61.03045,
            58.8453,
            56.61595,
            54.4308,
            52.20145,
            50.12665,
            48.07391,
            45.95494,
            43.90221,
            41.80531,
            39.77465,
            37.78812,
            35.86781,
            34.03579,
            32.60108,
            31.10015,
            29.73166,
            28.16451,
            26.487,
            24.80949,
            23.33064,
            21.89592,
            20.52743,
            19.15893,
            17.59178,
            16.135,
            14.96515,
            13.37593,
            12.22816,
            10.66101,
            9.44703,
            8.078535,
            6.77626,
            5.672635,
            4.171702,
            3.068078,
            1.986525,
            0.838755,
            -0.44145,
            -1.743727,
            -2.692845,
            -3.61989,
            -4.50279,
            -5.363615,
            -6.1803,
            -7.019055,
            -7.791595,
            -8.608275,
            -9.424955,
            -10.17542,
            -10.97003,
            -11.7205,
            -12.47097,
            -13.28765,
            -14.1264,
            -15.0093,
            -15.84805,
            -16.81924,
            -17.79044,
            -18.7837,
            -19.86525,
            -21.0351,
            -22.3153,
            -23.57343,
            -24.91986,
            -26.42078,
            -27.98793,
            -29.15777,
            -30.32762,
            -31.47539,
            -32.68938,
            -34.01372,
            -35.24979,
            -36.68449,
            -38.05299,
            -39.53185,
            -40.90034,
            -42.35713,
            -44.23329,
            -45.38106,
            -47.0365,
            -48.62571,
            -50.19285,
            -51.7821,
            -53.50375,
            -55.1592,
            -56.8146,
            -58.49215,
            -60.08135,
            -61.7147,
            -63.3481,
            -64.95935,
            -66.5486,
            -68.1378,
            -69.6608,
            -71.2721,
            -72.83925,
            -74.3181,
            -75.8632,
            -77.2979,
            -78.79885,
            -80.1673,
            -81.60205,
            -82.94845,
            -84.31695,
            -85.68545,
            -86.9215,
            -88.15755,
            -89.43775,
            -90.6959,
            -91.86575,
            -92.99145,
            -94.1392,
            -95.33115,
            -96.8983,
            -98.4213,
            -99.5249,
            -101.0038,
            -102.4164,
            -103.6966,
            -105.1093,
            -106.3895,
            -107.6034,
            -108.6629,
            -109.7224,
            -110.6936,
            -111.6869,
            -112.5256,
            -113.276,
            -113.8279,
            -114.3135,
            -114.6445,
            -114.9315,
            -115.1964,
            -115.1081,
            -115.086,
            -114.799,
            -114.6666,
            -114.3355,
            -113.7617,
            -113.3643,
            -112.7022,
            -112.1283,
            -111.5544,
            -110.7377,
            -110.0535,
            -109.4134,
            -108.7733,
            -108.1332,
            -107.5372,
            -106.8089,
            -106.1246,
            -105.3741,
            -104.6236,
            -103.829,
            -103.0786,
            -102.4826,
            -101.5997,
            -100.3195,
            -99.17175,
            -99.17175,
            -98.951,
            -98.4213,
            -96.92035,
            -95.15455,
            -93.45495,
            -91.77745,
            -89.79095,
            -87.69405,
            -85.7958,
            -83.7872,
            -81.82275,
            -79.9466,
            -78.0925,
            -76.21635,
            -74.3402,
            -72.50815,
            -70.6541,
            -68.82205,
            -67.0342,
            -65.20215,
            -63.4805,
            -61.8692,
            -60.6994,
            -59.04395,
            -56.9912,
            -55.4461,
            -53.74655,
            -52.06905,
            -50.34735,
            -48.66986,
            -46.94821,
            -45.22655,
            -43.54904,
            -41.82739,
            -40.14988,
            -38.47237,
            -36.88315,
            -35.18356,
            -33.52813,
            -31.98306,
            -30.34969,
            -28.76047,
            -27.23746,
            -25.71446,
            -24.27975,
            -22.88918,
            -21.5869,
            -20.43913,
            -18.87199,
            -17.41521,
            -16.02464,
            -14.78858,
            -13.50837,
            -12.3606,
            -11.2349,
            -10.13128,
            -9.18216,
            -8.166825,
            -7.195635,
            -6.334805,
            -5.407765,
            -4.524862,
            -3.61989,
            -2.73699,
            -1.94238,
            -1.081553,
            -0.309015,
            0.08829,
            1.456785,
            2.273468,
            3.421237,
            4.370355,
            5.341545,
            6.511385,
            7.7033,
            8.91729,
            10.17542,
            11.45562,
            12.75791,
            13.81738,
            15.07552,
            16.24536,
            17.72422,
            19.181,
            20.35085,
            21.60898,
            22.86711,
            24.12524,
            25.29509,
            26.487,
            27.63477,
            28.84875,
            30.12896,
            31.40917,
            32.77766,
            33.96958,
            35.24979,
            36.50792,
            37.83226,
            39.26698,
            40.67962,
            42.20262,
            43.76977,
            45.35899,
            46.88199,
            48.47121,
            49.95007,
            51.56135,
            53.0402,
            54.4308,
            55.8655,
            57.2119,
            58.55835,
            59.77235,
            61.05255,
            62.17825,
            63.37015,
            64.47375,
            65.9747,
            67.4094,
            68.82205,
            70.10225,
            71.31625,
            72.155,
            73.2145,
            74.27395,
            74.892,
            75.90735,
            76.45915,
            77.40825,
            78.247,
            78.95335,
            79.6817,
            80.4322,
            80.8295,
            81.49165,
            82.0435,
            82.3525,
            83.01465,
            83.3016,
            83.6989,
            83.91965,
            84.22865,
            84.5156,
            84.6922,
            84.9129,
            85.11155,
            85.19985,
            85.26605,
            85.26605,
            85.28815,
            85.2219,
            85.2219,
            85.0012,
            84.95705,
            84.6922,
            84.47145,
            84.2949,
            83.91965,
            83.721,
            83.34575,
            82.79395,
            82.5732,
            82.0435,
            81.6462,
            81.35925,
            80.5867,
            79.77,
            78.55605,
            76.9668,
            75.7749,
            74.6492,
            73.50145,
            72.3757,
            71.25005,
            70.03605,
            68.82205,
            67.54185,
            66.34995,
            65.158,
            64.01025,
            62.79625,
            61.60435,
            60.47865,
            59.3088,
            58.13895,
            55.8655,
            54.7398,
            52.5546,
            51.451,
            50.3253,
            49.1996,
            47.08065,
            45.9108,
            43.83598,
            41.71703,
            39.59806,
            37.52325,
            35.5588,
            33.81507,
            32.24792,
            30.79114,
            29.29021,
            27.41405,
            25.58203,
            23.94866,
            22.4698,
            20.96888,
            19.49002,
            17.94494,
            16.24536,
            15.07552,
            13.68495,
            12.38267,
            11.14661,
            9.9547,
            8.29926,
            7.15149,
            6.047865,
            4.546935,
            3.310875,
            2.052742,
            0.838755,
            -0.52974,
            -1.964453,
            -3.26673,
            -4.458645,
            -5.58434,
            -6.643825,
            -7.615015,
            -8.586205,
            -9.44703,
            -10.32993,
            -11.19076,
            -12.00744,
            -12.77998,
            -13.57459,
            -14.32505,
            -15.11966,
            -15.84805,
            -16.66474,
            -17.45934,
            -18.25396,
            -19.11478,
            -20.01976,
            -21.23375,
            -21.96214,
            -22.99954,
            -24.08109,
            -25.27301,
            -26.50908,
            -27.78928,
            -29.20192,
            -30.70285,
            -32.24792,
            -33.88129,
            -35.02906,
            -36.15475,
            -37.43496,
            -38.64895,
            -39.86293,
            -41.20936,
            -42.622,
            -43.99049,
            -45.42521,
            -46.85992,
            -48.29463,
            -49.75142,
            -51.23025,
            -52.7312,
            -54.1659,
            -55.5565,
            -56.9912,
            -58.3597,
            -59.7944,
            -61.11875,
            -62.48725,
            -63.70125,
            -65.04765,
            -66.32785,
            -67.54185,
            -68.73375,
            -69.8374,
            -71.0293,
            -72.59645,
            -73.72215,
            -75.17895,
            -76.5916,
            -77.98215,
            -79.19615,
            -81.20475,
            -81.20475,
            -82.2863,
            -83.34575,
            -84.40525,
            -85.4206,
            -86.3476,
            -87.1864,
            -88.06925,
            -88.8418,
            -89.6364,
            -90.40895,
            -91.027,
            -91.645,
            -92.3072,
            -92.83695,
            -93.3667,
            -93.8302,
            -94.27165,
            -94.6469,
            -94.84555,
            -95.1766,
            -95.46355,
            -95.5739,
            -95.8388,
            -95.9271,
            -96.01535,
            -95.94915,
            -96.01535,
            -95.905,
            -95.8388,
            -95.6843,
            -95.4194,
            -95.33115,
            -95.0442,
            -94.73515,
            -94.35995,
            -93.94055,
            -93.6757,
            -93.21215,
            -92.68245,
            -92.08645,
            -90.89455,
            -89.79095,
            -88.6211,
            -89.0846,
            -87.45125,
            -85.53095,
            -83.67685,
            -81.8007,
            -79.99075,
            -78.1146,
            -76.3267,
            -74.5609,
            -73.14825,
            -71.80185,
            -70.43335,
            -69.1973,
            -68.02745,
            -66.7914,
            -65.59945,
            -64.1427,
            -63.03905,
            -61.91335,
            -60.7656,
            -59.6399,
            -58.5142,
            -57.0795,
            -55.9317,
            -54.5853,
            -53.3051,
            -52.0911,
            -50.7888,
            -49.35411,
            -47.98561,
            -46.57298,
            -45.13826,
            -44.01257,
            -42.57785,
            -41.14314,
            -39.68636,
            -38.362,
            -36.92729,
            -35.53672,
            -34.4331,
            -33.04253,
            -31.65196,
            -30.28347,
            -28.91497,
            -27.54648,
            -26.17798,
            -24.80949,
            -23.46307,
            -22.18287,
            -20.83644,
            -19.60038,
            -18.34225,
            -17.06204,
            -15.91427,
            -14.70028,
            -13.59666,
            -13.30972,
            -12.02951,
            -10.81553,
            -9.64568,
            -8.431695,
            -7.26185,
            -6.1803,
            -5.187035,
            -4.14963,
            -3.17844,
            -2.361758,
            -1.567147,
            -0.70632,
            0.0,
            0.2869425,
            1.41264,
            2.03067,
            2.935642,
            3.928905,
            4.657298,
            5.341545,
            6.047865,
            6.73211,
            7.460505,
            8.343405,
            9.115945,
            9.866405,
            10.72723,
            11.52184,
            12.49304,
            13.33179,
            14.19261,
            15.29624,
            16.135,
            17.34899,
            18.5409,
            19.68867,
            20.96888,
            22.20494,
            23.44099,
            24.7212,
            26.02348,
            27.30368,
            28.6501,
            29.88617,
            31.25466,
            32.44658,
            33.74885,
            34.85248,
            35.97818,
            37.3246,
            38.53859,
            39.81879,
            40.98863,
            42.26883,
            43.61526,
            44.89547,
            46.1536,
            47.38966,
            48.66986,
            49.81763,
            51.00955,
            52.11315,
            53.50375,
            54.76185,
            56.0862,
            57.1457,
            58.24935,
            59.37505,
            60.39035,
            61.36155,
            62.31065,
            63.2377,
            64.07645,
            64.89315,
            65.70985,
            66.19545,
            67.23285,
            68.0495,
            68.6896,
            69.3297,
            69.96985,
            70.5658,
            71.16175,
            71.6915,
            72.2212,
            72.75095,
            73.2145,
            73.56765,
            73.89875,
            74.20775,
            74.5609,
            74.8699,
            75.17895,
            75.4438,
            75.6866,
            75.9294,
            76.0839,
            76.19425,
            76.3929,
            76.61365,
            76.7461,
            76.83435,
            76.9006,
            76.9668,
            76.92265,
            76.92265,
            76.92265,
            76.52535,
            76.28255,
            76.21635,
            76.1501,
            76.06185,
            75.97355,
            75.7528,
            75.6204,
            75.24515,
            75.02445,
            74.91405,
            74.6492,
            74.03115,
            71.86805,
            70.323,
            68.57925,
            67.2549,
            65.70985,
            64.2751,
            62.8404,
            61.4057,
            59.92685,
            58.5804,
            57.1457,
            55.75515,
            54.38665,
            53.0402,
            51.6938,
            50.3253,
            48.97888,
            47.69867,
            46.35225,
            45.0279,
            43.70355,
            42.46749,
            41.14314,
            39.86293,
            38.64895,
            37.41289,
            36.15475,
            34.10202,
            32.15963,
            30.28347,
            28.23073,
            27.08296,
            25.95726,
            23.86037,
            22.05043,
            20.28463,
            18.40846,
            16.37779,
            14.94308,
            13.7291,
            12.05159,
            10.39615,
            9.027655,
            7.791595,
            6.55553,
            4.745587,
            3.156368,
            2.03067,
            0.7725375,
            -0.6842475,
            -1.920308,
            -3.156368,
            -4.76766,
            -6.29066,
            -7.23978,
            -8.47584,
            -9.68983,
            -10.85967,
            -11.875,
            -12.55925,
            -13.22143,
            -14.19261,
            -14.78858,
            -15.38453,
            -15.95842,
            -16.55437,
            -17.08411,
            -17.68007,
            -18.32018,
            -18.96028,
            -19.55623,
            -20.28463,
            -20.96888,
            -21.60898,
            -22.29322,
            -23.08784,
            -23.92659,
            -24.76534,
            -25.58203,
            -26.50908,
            -27.50233,
            -28.51767,
            -29.57715,
            -30.74699,
            -31.93891,
            -33.1529,
            -34.52139,
            -35.9561,
            -37.45703,
            -39.00211,
            -40.6134,
            -42.33506,
            -43.99049,
            -45.80044,
            -47.56624,
            -49.30996,
            -51.09785,
            -52.84155,
            -54.497,
            -56.1745,
            -57.82995,
            -59.3971,
            -60.89805,
            -62.3548,
            -63.7233,
            -65.1139,
            -66.3941,
            -67.63015,
            -68.8441,
            -69.96985,
            -71.07345,
            -72.13295,
            -73.14825,
            -74.05325,
            -74.93615,
            -75.8411,
            -76.6578,
            -77.43035,
            -78.2691,
            -78.95335,
            -79.6817,
            -80.4322,
            -81.0502,
            -81.6462,
            -82.2642,
            -82.77185,
            -83.3016,
            -83.7872,
            -84.25075,
            -84.6922,
            -85.11155,
            -85.4868,
            -85.8179,
            -86.0607,
            -86.3476,
            -86.5904,
            -86.74495,
            -86.9215,
            -87.076,
            -87.0981,
            -87.1643,
            -87.12015,
            -87.12015,
            -87.03185,
            -86.9215,
            -86.78905,
            -86.56835,
            -86.32555,
            -86.0607,
            -85.6413,
            -84.5156,
            -84.4494,
            -84.4494,
            -83.5444,
            -82.88225,
            -82.6615,
            -81.49165,
            -80.14525,
            -78.93125,
            -77.71725,
            -76.4812,
            -75.17895,
            -73.87665,
            -72.3757,
            -70.8748,
            -69.2856,
            -67.6522,
            -66.1292,
            -64.54,
            -63.03905,
            -61.51605,
            -59.9489,
            -58.49215,
            -57.03535,
            -55.5565,
            -54.0997,
            -52.665,
            -51.31855,
            -50.06045,
            -48.84644,
            -47.50002,
            -46.04324,
            -44.6306,
            -43.19588,
            -41.76117,
            -40.30439,
            -38.86967,
            -37.52325,
            -36.02232,
            -34.69797,
            -33.04253,
            -31.62989,
            -30.21725,
            -28.84875,
            -27.48026,
            -26.28835,
            -25.00814,
            -23.61757,
            -22.29322,
            -20.96888,
            -19.62245,
            -18.32018,
            -17.08411,
            -15.80391,
            -14.54578,
            -13.30972,
            -12.13988,
            -10.97003,
            -10.04299,
            -8.91729,
            -7.195635,
            -5.76092,
            -4.59108,
            -3.421237,
            -2.339685,
            -1.302277,
            -0.309015,
            0.220725,
            1.567147,
            2.20725,
            3.377093,
            4.215847,
            5.054605,
            5.82714,
            6.62175,
            7.41636,
            8.144755,
            8.961435,
            9.7119,
            10.46237,
            11.19076,
            11.98537,
            12.8462,
            13.50837,
            14.19261,
            15.2521,
            15.84805,
            17.12826,
            18.18774,
            19.00443,
            20.5495,
            21.87385,
            23.17612,
            24.65498,
            26.11176,
            27.52441,
            29.02534,
            30.50419,
            32.13756,
            33.70471,
            35.24979,
            36.839,
            38.49444,
            40.21609,
            41.9819,
            43.76977,
            45.49142,
            47.21308,
            48.82437,
            50.3915,
            51.82625,
            53.2168,
            54.47495,
            55.75515,
            56.9029,
            58.05065,
            59.1543,
            60.16965,
            61.11875,
            62.0458,
            62.9949,
            63.83365,
            64.6062,
            65.37875,
            66.08505,
            66.7693,
            67.36525,
            67.9833,
            68.51305,
            69.0428,
            69.4401,
            69.9036,
            70.323,
            70.6982,
            71.0293,
            71.31625,
            71.62525,
            71.846,
            72.13295,
            72.90545,
            73.0379,
            73.14825,
            73.2145,
            73.2807,
            73.25865,
            73.25865,
            73.14825,
            72.99375,
            72.8172,
            72.66265,
            72.3757,
            72.155,
            71.77975,
            71.4487,
            70.0802,
            68.91035,
            66.7693,
            64.3855,
            62.08995,
            60.01515,
            57.9624,
            56.02,
            54.0335,
            52.06905,
            50.12665,
            48.16219,
            46.26396,
            44.36573,
            42.55578,
            40.72377,
            38.91382,
            37.12595,
            35.316,
            33.90336,
            32.51279,
            31.14429,
            29.79787,
            28.16451,
            26.39871,
            24.67706,
            23.15405,
            21.78555,
            20.39499,
            19.09271,
            17.43727,
            15.87013,
            13.97189,
            12.75791,
            11.45562,
            10.17542,
            8.608275,
            7.372215,
            5.893355,
            4.282065,
            3.156368,
            1.94238,
            0.61803,
            -0.7725375,
            -2.714917,
            -4.59108,
            -6.334805,
            -7.924025,
            -9.336665,
            -10.5948,
            -11.76464,
            -12.8462,
            -13.77324,
            -14.74443,
            -15.69355,
            -16.5323,
            -17.39313,
            -18.25396,
            -19.04856,
            -19.9094,
            -20.74815,
            -21.65312,
            -22.51395,
            -23.48514,
            -24.54462,
            -25.64824,
            -26.75187,
            -27.94378,
            -29.20192,
            -30.63663,
            -32.18171,
            -33.72678,
            -35.47051,
            -37.34667,
            -39.2449,
            -41.16521,
            -43.19588,
            -45.31484,
            -47.41173,
            -49.50861,
            -51.6055,
            -53.6141,
            -55.6889,
            -57.3885,
            -59.17635,
            -60.9201,
            -62.4431,
            -63.94405,
            -65.35665,
            -66.74725,
            -68.00535,
            -69.06485,
            -70.19055,
            -71.22795,
            -72.2212,
            -73.1262,
            -73.987,
            -74.84785,
            -75.64245,
            -76.3267,
            -77.01095,
            -77.6069,
            -78.2691,
            -78.77675,
            -79.19615,
            -79.6376,
            -80.07905,
            -80.4322,
            -80.60875,
            -80.78535,
            -81.00605,
            -81.1606,
            -81.1606,
            -81.20475,
            -81.11645,
            -81.00605,
            -80.85155,
            -80.5867,
            -80.29975,
            -79.9245,
            -79.57135,
            -79.26235,
            -78.93125,
            -78.62225,
            -78.247,
            -77.89385,
            -77.5186,
            -76.28255,
            -75.09065,
            -73.08205,
            -71.71355,
            -69.96985,
            -68.1599,
            -66.19545,
            -64.2972,
            -62.3548,
            -60.47865,
            -58.62455,
            -56.77045,
            -54.93845,
            -53.1506,
            -51.40685,
            -49.90592,
            -48.36084,
            -46.66127,
            -44.85132,
            -42.95309,
            -40.96656,
            -39.00211,
            -37.01559,
            -35.09528,
            -33.13082,
            -31.16637,
            -29.26814,
            -27.39197,
            -25.44959,
            -23.63965,
            -21.76348,
            -19.99768,
            -18.20981,
            -16.44401,
            -14.72236,
            -13.0007,
            -11.34527,
            -9.733975,
            -8.321335,
            -7.107345,
            -5.981645,
            -4.85595,
            -3.310875,
            -1.809945,
            -0.5518125,
            0.2869425,
            0.9932625,
            2.185178,
            3.597817,
            4.569007,
            5.49605,
            6.378955,
            7.21771,
            7.990245,
            8.76278,
            9.491175,
            10.17542,
            10.90382,
            11.76464,
            12.22816,
            12.80205,
            13.33179,
            13.8836,
            14.56785,
            15.14174,
            15.71562,
            16.5323,
            17.56971,
            18.27603,
            18.62919,
            19.9094,
            20.92473,
            22.00628,
            23.17612,
            24.34597,
            25.67031,
            26.95053,
            28.27487,
            29.66544,
            30.98979,
            32.51279,
            33.96958,
            35.38221,
            36.81693,
            38.33993,
            39.90708,
            41.45216,
            43.08552,
            44.58645,
            46.02116,
            47.41173,
            48.8023,
            50.1046,
            51.31855,
            52.44425,
            53.5258,
            54.62945,
            55.66685,
            56.61595,
            57.6313,
            58.49215,
            59.3309,
            60.08135,
            60.8318,
            61.5823,
            62.2003,
            62.8625,
            63.4143,
            63.9882,
            64.5179,
            66.8576,
            67.45355,
            67.85085,
            68.20405,
            68.60135,
            68.8441,
            69.13105,
            69.37385,
            69.5063,
            69.6608,
            69.72705,
            69.8153,
            69.85945,
            69.8153,
            69.7491,
            69.6608,
            69.5946,
            69.37385,
            69.13105,
            68.8883,
            68.51305,
            68.1599,
            67.78465,
            67.45355,
            67.14455,
            66.7031,
            66.3941,
            65.93055,
            65.44495,
            64.6724,
            63.70125,
            62.9949,
            56.72635,
            56.52765,
            56.06415,
            55.60065,
            55.02675,
            54.47495,
            53.90105,
            53.3713,
            52.77535,
            52.20145,
            51.56135,
            50.92125,
            50.28115,
            49.66312,
            49.06717,
            48.47121,
            47.85318,
            47.21308,
            46.57298,
            45.64593,
            44.49816,
            43.10759,
            41.67288,
            40.34853,
            39.00211,
            37.74398,
            36.37548,
            34.80833,
            33.1529,
            31.71818,
            30.28347,
            28.82668,
            27.30368,
            25.58203,
            23.97074,
            22.4698,
            21.12338,
            19.8211,
            18.5409,
            16.97375,
            15.47282,
            13.57459,
            12.47097,
            11.16868,
            9.88848,
            8.233045,
            6.952835,
            5.65056,
            3.465383,
            2.273468,
            0.97119,
            -0.2427975,
            -1.456785,
            -2.6487,
            -3.928905,
            -5.187035,
            -6.4231,
            -7.7033,
            -8.961435,
            -10.06506,
            -11.25698,
            -13.26558,
            -15.23003,
            -16.33365,
            -17.90079,
            -19.15893,
            -20.32877,
            -21.36618,
            -22.24908,
            -22.93332,
            -23.46307,
            -23.94866,
            -24.36804,
            -24.76534,
            -25.14058,
            -25.53788,
            -25.95726,
            -26.35456,
            -26.81808,
            -27.23746,
            -27.63477,
            -27.98793,
            -28.36316,
            -28.67218,
            -28.98119,
            -29.15777,
            -29.46679,
            -29.68752,
            -29.88617,
            -30.10689,
            -30.37176,
            -30.63663,
            -30.94564,
            -31.34295,
            -31.7844,
            -32.24792,
            -32.75559,
            -33.28533,
            -33.94751,
            -34.56554,
            -35.316,
            -36.06646,
            -36.92729,
            -37.81019,
            -38.80346,
            -39.75257,
            -40.76791,
            -41.91568,
            -43.19588,
            -44.3878,
            -45.73422,
            -47.08065,
            -48.40499,
            -50.5681,
            -52.1794,
            -53.87895,
            -55.3799,
            -56.8146,
            -58.2714,
            -59.7944,
            -61.3836,
            -62.79625,
            -64.09855,
            -65.31255,
            -66.65895,
            -67.76255,
            -68.8441,
            -69.88155,
            -70.8748,
            -71.77975,
            -72.59645,
            -73.41315,
            -73.987,
            -74.67125,
            -75.26725,
            -75.79695,
            -76.1722,
            -76.61365,
            -76.92265,
            -77.2096,
            -77.3862,
            -77.5186,
            -77.6069,
            -77.65105,
            -77.6069,
            -77.58485,
            -77.3641,
            -77.18755,
            -76.85645,
            -76.54745,
            -76.0839,
            -75.6866,
            -75.17895,
            -74.6271,
            -73.987,
            -73.30275,
            -72.66265,
            -71.9122,
            -71.1176,
            -70.7203,
            -69.8374,
            -69.30765,
            -68.4027,
            -67.4094,
            -66.48235,
            -65.59945,
            -64.89315,
            -64.09855,
            -63.1494,
            -62.64175,
            -62.17825,
            -61.1408,
            -60.16965,
            -59.17635,
            -58.13895,
            -57.2119,
            -56.21865,
            -55.33575,
            -54.3425,
            -53.4375,
            -52.5546,
            -51.56135,
            -50.70055,
            -49.83971,
            -48.97888,
            -48.02976,
            -47.0365,
            -45.86665,
            -45.42521,
            -43.08552,
            -41.27557,
            -39.0904,
            -36.97144,
            -34.96284,
            -32.77766,
            -30.85736,
            -28.93705,
            -27.03881,
            -25.07436,
            -23.24234,
            -21.27789,
            -19.40173,
            -17.52556,
            -15.6494,
            -13.68495,
            -11.875,
            -10.02092,
            -8.21097,
            -6.401025,
            -4.635225,
            -2.935642,
            -1.346423,
            0.309015,
            2.185178,
            4.039268,
            5.65056,
            7.305995,
            8.961435,
            10.52859,
            11.98537,
            13.28765,
            14.39127,
            16.28951,
            18.25396,
            20.15219,
            21.96214,
            23.66172,
            25.05229,
            26.2442,
            27.14918,
            27.92171,
            28.4956,
            28.91497,
            29.26814,
            29.40057,
            29.57715,
            29.66544,
            29.73166,
            29.81995,
            29.79787,
            29.79787,
            29.79787,
            29.7758,
            29.73166,
            29.7758,
            29.66544,
            29.6213,
            29.57715,
            29.51093,
            29.42264,
            29.33435,
            29.33435,
            29.26814,
            29.24607,
            29.17985,
            29.17985,
            29.1357,
            29.11363,
            28.56182,
            28.51767,
            28.56182,
            28.51767,
            28.51767,
            28.60596,
            28.18658,
            28.20865,
            28.29695,
            28.4956,
            28.60596,
            28.71632,
            28.98119,
            29.11363,
            29.35642,
            29.70959,
            30.04067,
            30.19518,
            30.63663,
            31.07808,
            31.51953,
            32.00512,
            32.53487,
            33.10875,
            33.63849,
            34.1903,
            34.72004,
            35.36015,
            35.93403,
            36.57413,
            37.19216,
            37.94262,
            38.64895,
            39.2449,
            39.88501,
            40.4589,
            40.98863,
            41.47423,
            41.8936,
            42.33506,
            42.64407,
            42.8648,
            43.12967,
            43.32832,
            43.52697,
            43.70355,
            43.83598,
            42.71029,
            42.68821,
            42.71029,
            41.43008,
            41.40801,
            41.43008,
            41.40801,
            41.40801,
            41.36386,
            41.20936,
            41.18729,
            40.94449,
            40.81205,
            40.72377,
            40.56926,
            40.3706,
            40.26024,
            40.08366,
            39.90708,
            37.9647,
            37.65569,
            36.72864,
            37.12595,
            36.839,
            36.64035,
            36.37548,
            36.15475,
            35.88988,
            35.316,
            35.02906,
            34.72004,
            34.45517,
            34.03579,
            33.77092,
            33.41777,
            33.04253,
            32.64523,
            32.29207,
            31.89476,
            31.51953,
            31.10015,
            30.70285,
            30.30554,
            29.88617,
            29.42264,
            28.98119,
            28.58389,
            28.14244,
            27.7672,
            27.3699,
            26.99467,
            26.57529,
            26.17798,
            25.78068,
            25.40545,
            25.03021,
            24.58876,
            24.21354,
            23.81623,
            23.39685,
            22.99954,
            22.5581,
            22.16079,
            21.74142,
            21.3441,
            20.88058,
            20.50535,
            20.13012,
            19.68867,
            19.35758,
            18.93821,
            18.60711,
            18.16566,
            17.81251,
            17.43727,
            17.06204,
            16.64267,
            16.22329,
            15.8922,
            15.4066,
            14.94308,
            14.47956,
            14.03811,
            -0.2427975
        ]
    }
}