{
    "Name": "Galeota et al. 1996, CA1",
    "Type": "Rectangular",
    "fpc": 80.0,
    "fyt": 430.0,
    "fsut": 0.0,
    "fyl": 430.0,
    "fsul": 0.0,
    "Width": 250.0,
    "Depth": 250.0,
    "L_Inflection": 1140.0,
    "L_Measured": 1140.0,
    "TestConfiguration": "Double Ended",
    "AxLoad": 1000.0,
    "P_Delta": "Shear provided",
    "dlb": 10.0,
    "dlb_c": 10.0,
    "nlb": 12.0,
    "cc_per": 30.0,
    "nib_per": 2.0,
    "cc_par": 30.0,
    "nib_par": 2.0,
    "SubType": "RI: Rectangular and interlocking ties",
    "nsl": 4.0,
    "dtb_rcs": 8.0,
    "s_rcs": 50.0,
    "FailureType": "Flexure",
    "data": {
        "disp": [
            0.24,
            0.42,
            0.57,
            0.65,
            0.75,
            0.93,
            1.13,
            1.21,
            1.31,
            1.55,
            1.73,
            1.78,
            2.02,
            2.28,
            2.37,
            2.47,
            2.8,
            2.89,
            2.99,
            3.26,
            3.5,
            3.62,
            3.76,
            4.04,
            4.19,
            4.34,
            4.77,
            4.89,
            5.18,
            5.5,
            5.65,
            6.11,
            6.23,
            6.54,
            6.87,
            7.15,
            7.5,
            7.83,
            8.15,
            8.5,
            8.8,
            9.140001,
            9.3,
            9.810001,
            9.979999,
            10.36,
            10.89,
            11.19,
            11.4,
            12.06,
            12.23,
            12.73,
            13.05,
            13.23,
            13.88,
            14.03,
            14.41,
            14.96,
            15.49,
            15.91,
            17.27,
            17.57,
            17.82,
            17.48,
            17.02,
            16.83,
            16.41,
            16.19,
            15.81,
            15.61,
            15.17,
            14.97,
            14.54,
            14.37,
            13.95,
            13.72,
            13.26,
            13.05,
            12.6,
            12.43,
            11.98,
            11.81,
            11.37,
            11.12,
            10.75,
            10.51,
            10.11,
            9.850001,
            9.47,
            9.32,
            8.87,
            8.71,
            8.310001,
            8.060001,
            7.73,
            7.52,
            7.14,
            7.02,
            6.72,
            6.47,
            6.15,
            5.97,
            5.64,
            5.32,
            5.22,
            4.7,
            4.7,
            4.31,
            4.17,
            3.98,
            3.63,
            3.54,
            3.23,
            2.98,
            2.95,
            2.63,
            2.38,
            2.22,
            1.85,
            1.71,
            1.52,
            1.09,
            0.91,
            0.59,
            0.28,
            0.12,
            -0.35,
            -0.5,
            -0.63,
            -0.93,
            -1.13,
            -1.24,
            -1.67,
            -1.84,
            -1.94,
            -2.3,
            -2.47,
            -2.56,
            -2.86,
            -3.02,
            -3.3,
            -3.63,
            -3.76,
            -4.28,
            -4.43,
            -4.75,
            -5.01,
            -5.51,
            -5.68,
            -6.01,
            -6.21,
            -6.55,
            -6.74,
            -7.28,
            -7.47,
            -8.020001,
            -8.21,
            -8.83,
            -9.25,
            -9.46,
            -10.06,
            -10.22,
            -10.8,
            -11.08,
            -11.43,
            -11.81,
            -12.02,
            -12.59,
            -12.82,
            -13.25,
            -13.85,
            -14.05,
            -14.51,
            -15.19,
            -15.68,
            -15.87,
            -16.54,
            -17.18,
            -17.41,
            -17.96,
            -18.75,
            -19.43,
            -19.7,
            -19.69,
            -19.23,
            -18.89,
            -18.75,
            -18.28,
            -18.11,
            -17.8,
            -17.6,
            -17.25,
            -17.08,
            -16.56,
            -16.37,
            -15.88,
            -15.68,
            -15.14,
            -14.98,
            -14.45,
            -14.23,
            -13.73,
            -13.53,
            -12.96,
            -12.76,
            -12.22,
            -12.03,
            -11.47,
            -11.28,
            -10.72,
            -10.55,
            -10.02,
            -9.850001,
            -9.32,
            -9.08,
            -8.560001,
            -8.41,
            -7.85,
            -7.64,
            -7.1,
            -6.91,
            -6.37,
            -6.2,
            -5.66,
            -5.44,
            -5.05,
            -4.86,
            -4.5,
            -4.21,
            -4.05,
            -3.56,
            -3.39,
            -3.12,
            -2.8,
            -2.64,
            -2.19,
            -2.04,
            -1.76,
            -1.54,
            -1.37,
            -1.02,
            -0.94,
            -0.69,
            -0.45,
            -0.3,
            0.1,
            0.25,
            0.55,
            0.77,
            0.82,
            1.13,
            1.32,
            1.51,
            1.87,
            1.96,
            2.25,
            2.49,
            2.66,
            3.03,
            3.2,
            3.49,
            3.79,
            3.97,
            4.47,
            4.65,
            5.0,
            5.17,
            5.52,
            5.76,
            5.96,
            6.41,
            6.81,
            6.96,
            7.56,
            7.78,
            8.37,
            8.5,
            9.100001,
            9.359999,
            9.939999,
            10.07,
            10.75,
            10.94,
            11.52,
            11.78,
            12.37,
            12.56,
            13.18,
            13.37,
            13.77,
            14.46,
            14.63,
            15.32,
            15.52,
            15.93,
            16.58,
            17.04,
            17.28,
            17.96,
            18.7,
            19.23,
            19.99,
            20.52,
            21.07,
            21.85,
            22.4,
            22.96,
            23.72,
            24.3,
            24.83,
            25.18,
            25.47,
            26.01,
            26.71,
            27.26,
            27.86,
            28.38,
            28.91,
            29.47,
            30.05,
            30.66,
            30.93,
            31.29,
            32.04,
            32.6,
            33.18,
            33.72,
            34.01,
            34.27,
            34.78,
            35.38,
            35.89,
            36.52,
            37.06,
            37.31,
            37.86,
            38.4,
            38.49,
            37.95,
            37.69,
            37.39,
            37.15,
            36.86,
            36.59,
            36.29,
            36.0,
            35.75,
            35.45,
            35.16,
            34.88,
            34.29,
            34.02,
            33.4,
            33.13,
            32.53,
            32.25,
            31.66,
            31.38,
            30.82,
            30.5,
            29.98,
            29.69,
            29.2,
            28.96,
            28.49,
            28.25,
            27.75,
            27.43,
            27.15,
            26.58,
            26.27,
            26.02,
            25.41,
            25.16,
            24.61,
            24.32,
            24.08,
            23.46,
            23.3,
            22.92,
            22.38,
            22.11,
            21.82,
            21.25,
            20.67,
            20.36,
            19.77,
            19.25,
            19.01,
            18.56,
            18.05,
            17.47,
            16.95,
            16.77,
            16.41,
            15.73,
            15.1,
            14.78,
            14.48,
            13.83,
            13.19,
            12.54,
            12.21,
            11.63,
            10.95,
            10.65,
            10.31,
            9.649999,
            9.04,
            8.74,
            8.43,
            7.77,
            7.18,
            6.88,
            6.29,
            5.95,
            5.69,
            5.06,
            4.75,
            4.46,
            3.87,
            3.6,
            3.31,
            2.73,
            2.43,
            2.16,
            1.52,
            1.26,
            0.96,
            0.47,
            0.17,
            -0.3,
            -0.62,
            -1.13,
            -1.34,
            -1.87,
            -2.09,
            -2.64,
            -2.85,
            -3.36,
            -3.6,
            -4.11,
            -4.4,
            -4.83,
            -5.1,
            -5.58,
            -5.85,
            -6.35,
            -6.57,
            -7.1,
            -7.42,
            -8.07,
            -8.3,
            -8.84,
            -9.13,
            -9.34,
            -9.899999,
            -10.18,
            -10.72,
            -11.02,
            -11.25,
            -11.78,
            -12.05,
            -12.36,
            -12.96,
            -13.52,
            -13.79,
            -14.4,
            -14.96,
            -15.28,
            -15.84,
            -16.47,
            -16.76,
            -17.36,
            -17.98,
            -18.62,
            -18.96,
            -19.58,
            -20.24,
            -20.88,
            -21.58,
            -22.27,
            -22.87,
            -23.59,
            -24.3,
            -25.01,
            -25.8,
            -26.52,
            -27.35,
            -27.71,
            -28.46,
            -29.27,
            -30.0,
            -30.73,
            -31.58,
            -31.92,
            -32.68,
            -33.44,
            -34.27,
            -34.66,
            -35.1,
            -35.84,
            -36.66,
            -37.45,
            -37.83,
            -38.63,
            -39.43,
            -39.83,
            -40.2,
            -41.07,
            -41.87,
            -42.26,
            -42.69,
            -43.27,
            -43.45,
            -42.75,
            -42.52,
            -42.25,
            -41.86,
            -41.66,
            -41.23,
            -40.96,
            -40.45,
            -40.23,
            -39.92,
            -39.44,
            -39.16,
            -38.66,
            -38.37,
            -37.98,
            -37.2,
            -36.95,
            -36.4,
            -36.1,
            -35.76,
            -35.23,
            -34.97,
            -34.64,
            -34.03,
            -33.41,
            -33.19,
            -32.65,
            -32.33,
            -32.01,
            -31.41,
            -31.08,
            -30.81,
            -30.28,
            -29.96,
            -29.67,
            -28.99,
            -28.77,
            -28.4,
            -27.85,
            -27.22,
            -26.98,
            -26.22,
            -25.67,
            -25.36,
            -24.76,
            -24.03,
            -23.78,
            -23.11,
            -22.44,
            -22.2,
            -21.85,
            -21.18,
            -20.52,
            -19.92,
            -19.52,
            -18.76,
            -18.04,
            -17.43,
            -16.73,
            -16.43,
            -15.97,
            -15.38,
            -14.73,
            -13.98,
            -13.7,
            -12.97,
            -12.07,
            -11.75,
            -11.37,
            -10.64,
            -9.91,
            -9.2,
            -8.609999,
            -8.350001,
            -7.84,
            -7.34,
            -7.13,
            -6.81,
            -6.2,
            -5.99,
            -5.7,
            -5.15,
            -4.79,
            -4.47,
            -3.7,
            -3.37,
            -2.84,
            -2.53,
            -2.26,
            -1.85,
            -1.67,
            -1.01,
            -0.93,
            -0.43,
            -0.28,
            0.11,
            0.37,
            0.69,
            1.21,
            1.42,
            1.92,
            2.07,
            2.72,
            3.17,
            3.4,
            3.89,
            4.24,
            4.77,
            5.18,
            5.69,
            6.09,
            6.64,
            6.9,
            7.21,
            7.8,
            8.12,
            8.42,
            9.109999,
            9.41,
            9.689999,
            10.48,
            11.02,
            11.38,
            11.94,
            12.49,
            12.76,
            13.52,
            14.29,
            14.65,
            14.91,
            15.64,
            16.29,
            16.92,
            17.26,
            17.93,
            18.58,
            19.34,
            20.1,
            20.36,
            21.08,
            21.82,
            22.58,
            23.18,
            23.84,
            24.59,
            24.94,
            25.67,
            26.4,
            27.08,
            27.89,
            28.57,
            29.33,
            30.02,
            30.77,
            31.61,
            32.3,
            33.13,
            33.83,
            34.54,
            35.26,
            36.11,
            36.85,
            37.15,
            37.56,
            38.29,
            39.14,
            39.21,
            38.67,
            38.37,
            38.02,
            37.75,
            37.48,
            37.16,
            36.91,
            36.61,
            36.28,
            36.02,
            35.72,
            35.46,
            34.87,
            34.58,
            34.01,
            33.71,
            33.16,
            32.82,
            32.31,
            32.02,
            31.49,
            31.12,
            30.61,
            30.32,
            29.62,
            29.35,
            28.75,
            28.46,
            27.85,
            27.62,
            27.34,
            26.83,
            26.63,
            26.32,
            25.69,
            25.46,
            25.12,
            24.59,
            24.26,
            24.03,
            23.44,
            22.96,
            22.75,
            22.25,
            21.74,
            21.52,
            21.17,
            20.61,
            20.09,
            19.79,
            19.46,
            18.71,
            17.98,
            17.61,
            16.87,
            16.12,
            15.35,
            15.0,
            14.28,
            13.51,
            13.14,
            12.76,
            12.0,
            11.24,
            10.86,
            10.49,
            9.729999,
            9.01,
            8.63,
            7.88,
            7.14,
            6.78,
            6.41,
            5.7,
            5.35,
            4.99,
            4.27,
            3.55,
            3.23,
            2.48,
            2.02,
            1.68,
            0.89,
            0.53,
            -0.13,
            -0.48,
            -1.1,
            -1.37,
            -1.7,
            -1.99,
            -2.28,
            -2.93,
            -3.27,
            -3.89,
            -4.18,
            -4.87,
            -5.24,
            -5.84,
            -6.19,
            -6.81,
            -7.14,
            -7.49,
            -8.17,
            -8.45,
            -8.78,
            -9.5,
            -9.83,
            -10.17,
            -10.87,
            -11.57,
            -11.88,
            -12.6,
            -13.3,
            -13.7,
            -14.43,
            -15.15,
            -15.86,
            -16.25,
            -17.0,
            -17.73,
            -18.47,
            -18.83,
            -19.21,
            -19.97,
            -20.74,
            -21.46,
            -22.24,
            -22.61,
            -23.39,
            -24.19,
            -24.96,
            -25.73,
            -26.51,
            -27.32,
            -28.1,
            -28.92,
            -29.77,
            -30.12,
            -30.51,
            -31.37,
            -32.12,
            -32.47,
            -33.29,
            -34.13,
            -34.94,
            -35.81,
            -36.34,
            -37.32,
            -38.14,
            -39.01,
            -39.87,
            -40.74,
            -41.63,
            -42.04,
            -42.91,
            -43.51,
            -43.45,
            -42.87,
            -42.59,
            -42.28,
            -42.01,
            -41.72,
            -41.4,
            -40.81,
            -40.49,
            -39.89,
            -39.59,
            -38.97,
            -38.59,
            -37.9,
            -37.6,
            -36.92,
            -36.53,
            -36.21,
            -35.55,
            -35.19,
            -34.81,
            -34.11,
            -33.77,
            -33.45,
            -32.71,
            -32.36,
            -32.01,
            -31.33,
            -30.97,
            -30.61,
            -29.89,
            -29.51,
            -29.17,
            -28.45,
            -28.09,
            -27.72,
            -27.0,
            -26.64,
            -26.26,
            -25.5,
            -25.1,
            -24.76,
            -23.97,
            -23.21,
            -22.83,
            -22.07,
            -21.26,
            -20.88,
            -20.08,
            -19.31,
            -18.94,
            -18.51,
            -17.72,
            -16.88,
            -16.51,
            -16.14,
            -15.3,
            -14.5,
            -14.13,
            -13.74,
            -12.9,
            -12.39,
            -11.48,
            -11.07,
            -10.14,
            -9.47,
            -8.83,
            -8.23,
            -8.12,
            -7.51,
            -6.77,
            -6.43,
            -5.69,
            -5.32,
            -4.97,
            -4.26,
            -3.94,
            -3.59,
            -3.02,
            -2.68,
            -2.51,
            -1.8,
            -1.68,
            -1.05,
            -0.82,
            -0.33,
            -0.03,
            0.23,
            0.92,
            1.14,
            1.74,
            2.0,
            2.37,
            2.98,
            3.3,
            3.59,
            4.26,
            4.63,
            5.26,
            5.59,
            6.33,
            6.74,
            7.43,
            7.78,
            8.600001,
            8.979999,
            9.3,
            10.13,
            10.47,
            10.88,
            11.63,
            12.5,
            12.84,
            13.68,
            14.4,
            14.89,
            15.27,
            16.08,
            16.86,
            17.69,
            18.11,
            18.94,
            19.79,
            20.35,
            20.86,
            21.24,
            22.05,
            22.88,
            23.38,
            24.24,
            25.05,
            25.94,
            26.36,
            27.2,
            28.02,
            28.87,
            29.78,
            30.66,
            31.51,
            32.37,
            32.88,
            33.72,
            34.56,
            35.5,
            36.32,
            36.84,
            37.71,
            38.66,
            39.57,
            39.5,
            39.03,
            38.61,
            38.1,
            37.65,
            37.16,
            36.73,
            36.24,
            35.78,
            35.3,
            34.84,
            34.41,
            33.97,
            33.51,
            33.15,
            32.76,
            32.32,
            31.79,
            31.28,
            30.85,
            30.38,
            29.85,
            29.38,
            28.97,
            28.57,
            27.94,
            27.67,
            26.86,
            26.41,
            25.51,
            25.35,
            24.61,
            24.26,
            24.1,
            23.53,
            23.0,
            22.83,
            22.07,
            21.6,
            21.09,
            20.58,
            20.0,
            19.52,
            18.92,
            18.4,
            17.88,
            17.28,
            16.7,
            15.93,
            15.37,
            14.85,
            14.26,
            13.68,
            13.15,
            12.6,
            11.99,
            11.41,
            10.89,
            10.28,
            9.770001,
            9.21,
            8.609999,
            8.07,
            7.53,
            6.94,
            6.39,
            5.89,
            5.28,
            4.74,
            4.25,
            3.69,
            3.15,
            2.62,
            2.11,
            1.55,
            1.08,
            0.52,
            -0.42,
            -0.91,
            -1.47,
            -1.9,
            -2.45,
            -2.91,
            -3.47,
            -3.96,
            -4.47,
            -5.48,
            -5.94,
            -6.95,
            -7.51,
            -8.01,
            -8.51,
            -9.060001,
            -9.560001,
            -10.1,
            -10.62,
            -11.15,
            -11.67,
            -12.27,
            -12.78,
            -13.35,
            -13.91,
            -14.43,
            -14.96,
            -15.56,
            -16.09,
            -16.71,
            -17.22,
            -17.8,
            -18.33,
            -18.92,
            -19.52,
            -20.54,
            -21.07,
            -21.71,
            -22.25,
            -22.87,
            -23.4,
            -24.0,
            -24.61,
            -25.13,
            -25.76,
            -26.38,
            -26.97,
            -27.62,
            -28.16,
            -28.78,
            -29.35,
            -29.97,
            -30.53,
            -31.19,
            -31.78,
            -32.47,
            -32.98,
            -33.66,
            -34.21,
            -34.85,
            -35.53,
            -36.13,
            -36.75,
            -37.39,
            -38.01,
            -38.68,
            -39.25,
            -39.92,
            -40.62,
            -41.25,
            -41.84,
            -42.51,
            -43.25,
            -44.03,
            -44.33,
            -44.0,
            -43.2,
            -42.86,
            -42.47,
            -42.14,
            -41.68,
            -41.32,
            -40.91,
            -40.48,
            -40.01,
            -39.62,
            -38.67,
            -38.25,
            -37.36,
            -36.9,
            -35.93,
            -35.48,
            -34.96,
            -34.49,
            -34.08,
            -33.14,
            -32.67,
            -31.67,
            -31.23,
            -30.32,
            -29.85,
            -29.3,
            -28.81,
            -28.35,
            -27.39,
            -26.87,
            -25.84,
            -25.31,
            -24.3,
            -23.79,
            -23.25,
            -22.72,
            -22.19,
            -21.73,
            -21.19,
            -20.66,
            -20.16,
            -19.61,
            -19.07,
            -18.55,
            -17.98,
            -17.46,
            -16.88,
            -15.81,
            -15.3,
            -14.31,
            -13.79,
            -13.02,
            -12.7,
            -12.33,
            -11.81,
            -10.79,
            -10.33,
            -9.68,
            -8.71,
            -8.140001,
            -7.59,
            -7.08,
            -6.58,
            -5.57,
            -5.03,
            -4.65,
            -3.87,
            -3.35,
            -3.24,
            -2.71,
            -2.44,
            -1.98,
            -1.42,
            -1.14,
            -0.76,
            0.13,
            0.46,
            1.11,
            1.56,
            2.41,
            2.82,
            3.73,
            4.2,
            5.06,
            5.53,
            6.51,
            7.02,
            8.0,
            8.51,
            9.03,
            10.07,
            10.62,
            11.66,
            12.18,
            12.77,
            13.81,
            14.33,
            14.89,
            15.4,
            15.96,
            16.53,
            17.06,
            17.56,
            18.19,
            18.77,
            19.31,
            19.83,
            20.36,
            20.95,
            21.47,
            22.06,
            22.66,
            23.2,
            23.78,
            24.36,
            24.91,
            25.43,
            26.0,
            26.64,
            27.16,
            27.75,
            28.35,
            28.88,
            29.47,
            30.06,
            30.65,
            31.17,
            31.78,
            32.33,
            32.94,
            33.51,
            34.16,
            34.76,
            35.34,
            35.85,
            36.46,
            37.13,
            37.71,
            38.32,
            38.86,
            39.5,
            40.09,
            40.15,
            39.43,
            38.99,
            38.52,
            38.11,
            37.71,
            37.23,
            36.87,
            36.46,
            36.1,
            35.72,
            35.36,
            35.02,
            34.57,
            34.15,
            33.72,
            33.21,
            32.8,
            32.36,
            31.91,
            31.52,
            30.72,
            30.36,
            29.53,
            29.05,
            28.62,
            28.21,
            27.64,
            27.35,
            26.75,
            26.36,
            26.2,
            25.66,
            25.03,
            24.63,
            23.68,
            23.19,
            22.7,
            21.74,
            21.22,
            20.75,
            20.2,
            19.22,
            18.64,
            17.58,
            16.53,
            16.0,
            14.91,
            13.85,
            13.4,
            12.82,
            12.3,
            11.77,
            11.24,
            10.71,
            10.13,
            9.609999,
            9.109999,
            8.55,
            8.05,
            7.54,
            6.99,
            6.47,
            6.0,
            5.5,
            4.92,
            3.93,
            3.41,
            2.39,
            1.93,
            1.42,
            0.48,
            -0.02,
            -0.93,
            -1.43,
            -2.39,
            -2.87,
            -3.81,
            -4.34,
            -5.28,
            -5.78,
            -6.75,
            -7.24,
            -8.19,
            -8.7,
            -9.26,
            -10.21,
            -10.71,
            -11.28,
            -12.3,
            -12.75,
            -13.26,
            -13.81,
            -14.31,
            -14.82,
            -15.38,
            -15.92,
            -16.44,
            -17.0,
            -18.02,
            -18.72,
            -19.26,
            -19.8,
            -20.35,
            -21.35,
            -21.93,
            -22.47,
            -23.03,
            -23.55,
            -24.07,
            -24.64,
            -25.25,
            -25.79,
            -26.32,
            -26.83,
            -27.36,
            -27.95,
            -28.56,
            -29.13,
            -29.65,
            -30.18,
            -30.77,
            -31.3,
            -31.9,
            -32.43,
            -33.07,
            -33.75,
            -34.28,
            -34.89,
            -35.47,
            -36.06,
            -36.57,
            -37.19,
            -37.77,
            -38.32,
            -38.96,
            -39.49,
            -40.09,
            -40.67,
            -41.3,
            -41.88,
            -42.47,
            -43.05,
            -43.6,
            -44.19,
            -44.54,
            -44.0,
            -43.5,
            -43.22,
            -42.92,
            -42.62,
            -42.05,
            -41.76,
            -41.18,
            -40.85,
            -40.2,
            -39.9,
            -39.29,
            -38.92,
            -38.6,
            -37.94,
            -37.6,
            -37.26,
            -36.59,
            -36.25,
            -35.94,
            -35.2,
            -34.91,
            -34.49,
            -33.85,
            -33.49,
            -33.19,
            -32.48,
            -32.15,
            -31.85,
            -31.13,
            -30.78,
            -30.45,
            -29.71,
            -29.4,
            -29.02,
            -28.25,
            -27.87,
            -27.52,
            -26.81,
            -26.4,
            -25.97,
            -25.08,
            -24.3,
            -24.02,
            -23.23,
            -22.4,
            -22.01,
            -21.66,
            -20.82,
            -20.08,
            -19.22,
            -18.88,
            -18.04,
            -17.29,
            -16.47,
            -16.06,
            -15.79,
            -15.15,
            -14.53,
            -14.0,
            -13.4,
            -12.85,
            -12.4,
            -12.01,
            -11.19,
            -10.4,
            -9.68,
            -9.24,
            -8.49,
            -7.76,
            -7.29,
            -6.89,
            -6.18,
            -5.47,
            -5.12,
            -4.59,
            -4.07,
            -3.73,
            -3.57,
            -2.82,
            -2.22,
            -2.06,
            -1.48,
            -1.18,
            -0.83,
            -0.18,
            0.37,
            0.65,
            1.19,
            1.82,
            2.1,
            2.78,
            3.45,
            3.82,
            4.54,
            4.83,
            5.21,
            5.89,
            6.23,
            6.58,
            7.36,
            7.79,
            8.23,
            9.020001,
            9.729999,
            10.09,
            10.59,
            11.29,
            12.16,
            12.53,
            12.91,
            13.81,
            14.61,
            15.33,
            15.76,
            16.25,
            17.0,
            17.88,
            18.62,
            19.51,
            19.9,
            20.35,
            21.17,
            21.92,
            22.44,
            23.25,
            24.08,
            24.87,
            25.31,
            26.19,
            26.98,
            27.87,
            28.66,
            29.53,
            30.39,
            31.27,
            32.16,
            33.0,
            33.84,
            34.35,
            35.21,
            36.05,
            36.92,
            37.85,
            38.79,
            39.64,
            40.55,
            41.4,
            42.22,
            42.76,
            43.68,
            44.54,
            45.45,
            45.92,
            46.36,
            47.31,
            48.13,
            49.08,
            50.05,
            50.4,
            50.91,
            51.83,
            52.84,
            53.81,
            54.69,
            55.17,
            56.13,
            57.04,
            57.92,
            58.45,
            58.86,
            59.84,
            60.4,
            60.42,
            59.87,
            59.54,
            59.3,
            59.0,
            58.7,
            58.4,
            58.06,
            57.79,
            57.4,
            57.11,
            56.76,
            56.44,
            55.81,
            55.6,
            55.01,
            54.74,
            54.08,
            53.71,
            53.24,
            53.14,
            52.56,
            52.46,
            51.96,
            51.38,
            51.35,
            50.53,
            50.1,
            49.39,
            49.03,
            48.26,
            47.86,
            47.1,
            46.65,
            45.82,
            45.44,
            45.01,
            44.18,
            43.75,
            43.29,
            42.49,
            41.53,
            41.09,
            40.2,
            39.3,
            38.86,
            38.37,
            37.51,
            36.58,
            35.61,
            34.67,
            34.16,
            33.24,
            32.3,
            31.64,
            31.03,
            30.09,
            29.12,
            28.13,
            27.19,
            26.65,
            25.73,
            25.26,
            24.82,
            24.29,
            23.34,
            22.41,
            21.41,
            20.49,
            19.97,
            19.02,
            18.06,
            17.15,
            16.15,
            15.23,
            14.3,
            13.84,
            13.38,
            12.48,
            11.56,
            10.67,
            10.23,
            9.78,
            8.850001,
            7.98,
            7.05,
            6.57,
            5.74,
            4.87,
            4.42,
            4.0,
            3.1,
            2.21,
            1.77,
            1.35,
            0.42,
            -0.42,
            -0.8,
            -1.7,
            -2.61,
            -3.0,
            -3.43,
            -4.29,
            -5.18,
            -5.65,
            -6.45,
            -6.95,
            -7.77,
            -8.22,
            -9.12,
            -9.979999,
            -10.41,
            -10.83,
            -11.77,
            -12.64,
            -13.52,
            -13.99,
            -14.43,
            -15.31,
            -15.97,
            -16.82,
            -17.73,
            -18.65,
            -19.52,
            -19.98,
            -20.97,
            -21.87,
            -22.79,
            -23.75,
            -24.68,
            -25.65,
            -26.25,
            -27.17,
            -28.19,
            -29.08,
            -29.58,
            -30.54,
            -31.54,
            -32.05,
            -32.94,
            -33.46,
            -33.97,
            -34.94,
            -35.93,
            -36.46,
            -36.88,
            -37.43,
            -37.95,
            -38.9,
            -39.45,
            -40.44,
            -41.43,
            -41.91,
            -42.44,
            -42.95,
            -43.94,
            -44.49,
            -45.12,
            -45.57,
            -46.11,
            -47.1,
            -47.61,
            -48.11,
            -48.67,
            -49.16,
            -49.65,
            -50.18,
            -50.73,
            -51.23,
            -51.73,
            -52.29,
            -52.82,
            -53.38,
            -53.9,
            -54.9,
            -55.48,
            -55.97,
            -56.49,
            -57.04,
            -57.58,
            -58.09,
            -58.62,
            -59.18,
            -59.66,
            -60.22,
            -60.79,
            -61.31,
            -61.8,
            -62.35,
            -62.86,
            -63.42,
            -63.93,
            -64.46,
            -64.98001,
            -65.53,
            -66.04,
            -66.65,
            -67.02,
            -66.67,
            -65.9,
            -65.55,
            -64.81,
            -64.37,
            -63.52,
            -63.11,
            -62.28,
            -61.84,
            -60.93,
            -60.49,
            -59.63,
            -59.19,
            -58.33,
            -57.94,
            -57.02,
            -56.59,
            -55.63,
            -55.23,
            -54.32,
            -53.88,
            -53.01,
            -52.83,
            -52.33,
            -51.77,
            -50.87,
            -50.3,
            -49.75,
            -49.16,
            -48.57,
            -48.0,
            -47.37,
            -46.77,
            -46.2,
            -45.53,
            -44.91,
            -44.29,
            -43.65,
            -43.04,
            -42.37,
            -41.79,
            -41.15,
            -40.44,
            -39.87,
            -39.27,
            -38.72,
            -38.22,
            -37.64,
            -37.09,
            -36.48,
            -35.91,
            -35.37,
            -34.68,
            -34.14,
            -33.53,
            -32.95,
            -32.27,
            -31.6,
            -30.97,
            -30.31,
            -29.66,
            -29.01,
            -28.34,
            -27.65,
            -26.98,
            -26.3,
            -25.6,
            -25.01,
            -24.34,
            -23.72,
            -23.05,
            -22.36,
            -21.71,
            -21.01,
            -20.45,
            -19.93,
            -19.35,
            -18.72,
            -18.2,
            -17.23,
            -16.63,
            -16.05,
            -15.14,
            -14.5,
            -13.91,
            -13.34,
            -12.81,
            -12.06,
            -11.17,
            -10.65,
            -10.1,
            -9.57,
            -8.99,
            -8.38,
            -7.81,
            -7.16,
            -6.58,
            -6.06,
            -5.47,
            -4.92,
            -4.31,
            -3.76,
            -3.22,
            -2.68,
            -2.14,
            -1.62,
            -1.04,
            -0.4,
            0.16,
            0.69,
            1.28,
            1.9,
            2.45,
            3.07,
            3.67,
            4.24,
            4.84,
            5.41,
            6.04,
            6.65,
            7.22,
            7.84,
            8.479999,
            9.08,
            9.67,
            10.28,
            10.94,
            11.56,
            12.19,
            12.84,
            13.49,
            14.13,
            14.77,
            15.41,
            16.03,
            16.69,
            17.35,
            18.0,
            18.59,
            19.32,
            19.98,
            20.61,
            21.26,
            21.94,
            22.64,
            23.23,
            23.9,
            24.56,
            25.2,
            25.91,
            26.6,
            27.24,
            27.9,
            28.6,
            29.23,
            29.94,
            30.59,
            31.25,
            31.97,
            32.6,
            33.28,
            33.95,
            34.63,
            35.32,
            36.0,
            36.66,
            37.4,
            38.04,
            38.77,
            39.43,
            40.07,
            40.81,
            41.49,
            42.16,
            42.8,
            43.57,
            44.24,
            44.93,
            45.61,
            46.32,
            47.04,
            47.68,
            48.42,
            49.16,
            49.79,
            50.74,
            51.51,
            52.18,
            52.87,
            53.59,
            54.29,
            55.03,
            55.74,
            56.46,
            57.23,
            58.04,
            58.79,
            59.56,
            60.27,
            60.98,
            61.2,
            60.43,
            60.05,
            59.64,
            59.34,
            58.9,
            58.54,
            58.21,
            57.86,
            57.62,
            57.36,
            57.04,
            56.72,
            56.18,
            56.14,
            55.41,
            54.96,
            54.47,
            54.02,
            53.46,
            53.01,
            52.43,
            51.95,
            51.44,
            50.9,
            50.31,
            49.78,
            49.27,
            48.63,
            47.54,
            46.96,
            46.37,
            45.9,
            45.28,
            44.68,
            44.08,
            43.51,
            42.87,
            42.31,
            41.7,
            41.13,
            40.48,
            39.94,
            39.39,
            38.8,
            38.2,
            37.49,
            36.87,
            36.3,
            35.59,
            34.92,
            34.33,
            33.69,
            33.06,
            32.36,
            31.67,
            31.04,
            30.34,
            29.77,
            29.06,
            28.37,
            27.74,
            27.07,
            26.39,
            25.73,
            25.13,
            24.48,
            23.75,
            23.1,
            22.49,
            21.85,
            21.12,
            20.46,
            19.83,
            19.24,
            18.52,
            17.89,
            17.22,
            16.57,
            15.77,
            15.12,
            14.43,
            13.84,
            13.18,
            12.52,
            11.89,
            11.28,
            10.7,
            10.05,
            9.38,
            8.83,
            8.11,
            7.53,
            6.93,
            6.29,
            5.63,
            5.06,
            4.38,
            3.84,
            3.16,
            2.51,
            1.93,
            1.35,
            0.68,
            0.02,
            -0.62,
            -1.29,
            -1.9,
            -2.52,
            -3.15,
            -3.72,
            -4.34,
            -4.96,
            -5.64,
            -6.24,
            -6.89,
            -7.56,
            -8.12,
            -8.82,
            -9.42,
            -10.06,
            -10.78,
            -11.41,
            -12.0,
            -12.63,
            -13.28,
            -14.01,
            -14.57,
            -15.22,
            -15.85,
            -16.55,
            -17.18,
            -17.84,
            -18.5,
            -19.13,
            -19.8,
            -20.35,
            -21.1,
            -21.85,
            -22.54,
            -23.16,
            -23.75,
            -24.43,
            -25.12,
            -25.79,
            -26.36,
            -27.09,
            -27.74,
            -28.41,
            -29.15,
            -29.75,
            -30.39,
            -31.09,
            -31.8,
            -32.57,
            -33.32,
            -33.92,
            -34.59,
            -35.31,
            -36.03,
            -36.72,
            -37.41,
            -38.04,
            -38.67,
            -39.37,
            -40.15,
            -40.78,
            -41.45,
            -42.2,
            -42.9,
            -43.54,
            -44.25,
            -44.9,
            -45.61,
            -46.37,
            -46.99,
            -47.78,
            -48.43,
            -49.16,
            -49.84,
            -50.55,
            -51.29,
            -51.95,
            -52.94,
            -53.59,
            -54.38,
            -55.02,
            -55.69,
            -56.39,
            -57.14,
            -57.77,
            -58.56,
            -59.26,
            -59.95,
            -60.78,
            -61.49,
            -62.25,
            -62.99,
            -63.83,
            -64.6,
            -65.99,
            -66.84,
            -67.53,
            -68.29,
            -68.98001,
            -69.67,
            -69.81,
            -68.84,
            -68.3,
            -67.8,
            -67.28,
            -66.53,
            -66.4,
            -65.61,
            -65.06,
            -64.49,
            -63.87,
            -63.31,
            -62.62,
            -62.02,
            -61.34,
            -60.65,
            -60.04,
            -59.45,
            -58.8,
            -58.25,
            -57.84,
            -57.41,
            -56.6,
            -56.03,
            -55.17,
            -54.5,
            -53.9,
            -53.21,
            -52.57,
            -51.9,
            -51.24,
            -50.6,
            -50.05,
            -49.39,
            -48.86,
            -48.14,
            -47.51,
            -46.85,
            -46.22,
            -45.46,
            -44.81,
            -44.1,
            -43.41,
            -42.7,
            -41.95,
            -41.23,
            -40.59,
            -39.86,
            -39.16,
            -38.4,
            -37.72,
            -36.99,
            -36.24,
            -35.6,
            -34.9,
            -34.14,
            -33.42,
            -32.76,
            -32.1,
            -31.37,
            -30.69,
            -29.91,
            -29.23,
            -28.6,
            -27.84,
            -27.21,
            -26.44,
            -25.79,
            -25.1,
            -24.36,
            -23.69,
            -23.02,
            -22.15,
            -21.43,
            -20.84,
            -20.3,
            -19.28,
            -18.67,
            -18.09,
            -17.43,
            -16.79,
            -16.2,
            -15.46,
            -14.77,
            -14.1,
            -13.46,
            -12.76,
            -12.07,
            -11.39,
            -10.7,
            -10.03,
            -9.350001,
            -8.7,
            -7.96,
            -7.32,
            -6.6,
            -5.93,
            -5.27,
            -4.59,
            -3.9,
            -3.24,
            -2.63,
            -1.87,
            -1.22,
            -0.55,
            0.13,
            0.78,
            1.47,
            2.14,
            2.8,
            3.49,
            4.19,
            4.83,
            5.54,
            6.22,
            6.89,
            7.63,
            8.270001,
            8.97,
            9.72,
            10.38,
            11.07,
            11.77,
            12.44,
            13.18,
            13.86,
            14.6,
            15.31,
            16.0,
            16.7,
            17.41,
            18.14,
            18.97,
            19.71,
            20.41,
            21.08,
            21.78,
            22.55,
            23.22,
            23.88,
            24.58,
            25.36,
            26.03,
            26.74,
            27.47,
            28.21,
            28.86,
            29.61,
            30.28,
            31.07,
            31.76,
            32.43,
            33.16,
            33.86,
            34.61,
            35.26,
            36.03,
            36.73,
            37.46,
            38.18,
            38.94,
            39.66,
            40.34,
            41.08,
            41.77,
            42.49,
            43.24,
            44.52,
            45.31,
            46.05,
            46.81,
            47.62,
            48.39,
            49.16,
            49.99,
            50.68,
            51.72,
            52.42,
            53.19,
            54.01,
            55.19,
            56.41,
            57.29,
            58.14,
            58.98,
            59.82,
            60.63
        ],
        "force": [
            3.390336,
            6.341184,
            8.978112,
            10.10822,
            11.55226,
            14.1264,
            17.20282,
            18.08179,
            19.96531,
            23.41843,
            25.42752,
            26.49485,
            29.38291,
            32.89882,
            34.34285,
            36.60307,
            40.37011,
            42.00249,
            43.5721,
            46.58573,
            49.28544,
            50.54112,
            51.85958,
            54.43373,
            55.87776,
            57.00787,
            60.27264,
            61.5911,
            63.60019,
            65.54649,
            66.55104,
            69.37632,
            70.38087,
            72.26438,
            73.95955,
            75.52915,
            77.09875,
            78.60557,
            79.86124,
            81.30528,
            82.49818,
            83.87943,
            84.44448,
            86.26521,
            87.01862,
            86.76749,
            88.58823,
            89.78112,
            90.40896,
            92.6064,
            92.9831,
            94.5527,
            95.87117,
            96.12231,
            97.75468,
            98.44531,
            99.07315,
            100.2033,
            100.5172,
            101.0195,
            84.57005,
            83.75385,
            82.05869,
            78.66835,
            75.90585,
            74.90131,
            72.32717,
            71.13427,
            68.74848,
            67.55559,
            65.23257,
            64.03968,
            62.21894,
            61.08883,
            59.01696,
            58.01242,
            55.87776,
            55.12435,
            53.3664,
            52.29907,
            50.54112,
            49.59936,
            47.77863,
            46.77408,
            44.95334,
            43.9488,
            42.25363,
            41.24909,
            39.24,
            38.23545,
            36.22637,
            35.09626,
            33.02438,
            32.27098,
            30.07354,
            29.06899,
            26.93434,
            25.92979,
            24.17184,
            22.72781,
            20.96986,
            19.96531,
            17.83066,
            16.00992,
            14.87981,
            12.11731,
            11.48947,
            9.292032,
            8.538624,
            6.529536,
            3.955392,
            3.390336,
            1.318464,
            -0.62784,
            -1.192896,
            -3.955392,
            -6.2784,
            -7.282944,
            -10.92442,
            -12.11731,
            -13.43578,
            -17.01446,
            -18.01901,
            -20.34202,
            -22.72781,
            -23.9207,
            -27.68774,
            -29.13178,
            -30.26189,
            -33.02438,
            -34.21728,
            -35.66131,
            -39.24,
            -40.4329,
            -41.81414,
            -44.3255,
            -45.58118,
            -46.89965,
            -49.47379,
            -50.72947,
            -53.05248,
            -55.50106,
            -56.69395,
            -59.83315,
            -60.96326,
            -62.97235,
            -62.84678,
            -66.17434,
            -67.17888,
            -68.93683,
            -69.69024,
            -71.51098,
            -72.13882,
            -74.27348,
            -75.15245,
            -77.60102,
            -78.29165,
            -79.42176,
            -80.80301,
            -81.49363,
            -83.43993,
            -83.81664,
            -85.63737,
            -85.95129,
            -87.33254,
            -88.52544,
            -88.96493,
            -90.59731,
            -91.09959,
            -92.16691,
            -93.35981,
            -93.86208,
            -94.74106,
            -96.05952,
            -96.9385,
            -97.3152,
            -98.44531,
            -99.07315,
            -99.44986,
            -99.01037,
            -98.8848,
            -97.12685,
            -96.49901,
            -93.10867,
            -89.90668,
            -87.83482,
            -86.95584,
            -84.06778,
            -83.1888,
            -81.36806,
            -80.48909,
            -78.60557,
            -77.91495,
            -75.3408,
            -74.65018,
            -72.32717,
            -71.57376,
            -69.37632,
            -68.56013,
            -66.61382,
            -65.98598,
            -63.97689,
            -63.22349,
            -61.40275,
            -60.58656,
            -58.64025,
            -57.88685,
            -55.87776,
            -55.06157,
            -52.92691,
            -52.29907,
            -50.10163,
            -49.28544,
            -47.02522,
            -46.33459,
            -44.19994,
            -43.38374,
            -41.06074,
            -40.4329,
            -38.0471,
            -37.41927,
            -34.84512,
            -34.09171,
            -31.70592,
            -30.26189,
            -28.75507,
            -27.75053,
            -25.74144,
            -23.73235,
            -22.72781,
            -19.58861,
            -18.4585,
            -16.38662,
            -14.06362,
            -13.05907,
            -9.73152,
            -8.664192,
            -6.59232,
            -4.39488,
            -3.515904,
            -1.192896,
            -0.94176,
            1.5696,
            3.704256,
            4.771584,
            8.099136,
            8.915328,
            10.92442,
            13.05907,
            13.49856,
            16.00992,
            17.57952,
            19.27469,
            22.22554,
            23.04173,
            24.79968,
            26.55763,
            27.37382,
            29.88518,
            30.76416,
            32.52211,
            34.34285,
            35.47296,
            38.61216,
            39.6167,
            41.56301,
            42.44198,
            44.38829,
            45.33005,
            46.89965,
            48.40646,
            50.10163,
            50.98061,
            53.24083,
            54.11981,
            56.31725,
            57.19622,
            59.39367,
            60.0215,
            62.21894,
            62.784,
            64.79309,
            65.42093,
            67.36723,
            67.99507,
            69.87859,
            70.38087,
            72.13882,
            72.5783,
            73.83398,
            75.46637,
            75.71751,
            77.47546,
            78.04051,
            78.79392,
            80.0496,
            80.86579,
            81.17971,
            81.87034,
            82.3726,
            82.24704,
            82.18426,
            81.9959,
            81.68198,
            81.43085,
            81.05415,
            80.67744,
            80.0496,
            79.6729,
            79.42176,
            75.90585,
            75.52915,
            75.90585,
            75.65472,
            75.52915,
            75.15245,
            74.90131,
            74.71296,
            74.33626,
            74.08512,
            73.7712,
            73.26893,
            73.14336,
            72.5783,
            72.07603,
            71.38541,
            70.94592,
            70.69479,
            70.50643,
            70.00416,
            69.50188,
            69.12518,
            68.56013,
            67.80672,
            67.61837,
            67.17888,
            66.7394,
            63.41184,
            60.20985,
            58.64025,
            57.25901,
            55.68941,
            54.11981,
            52.73856,
            51.35731,
            49.97606,
            48.72038,
            47.33913,
            46.20902,
            45.01613,
            43.00704,
            41.75136,
            39.99341,
            39.17722,
            37.10534,
            36.1008,
            34.34285,
            33.3383,
            31.45478,
            30.70138,
            28.88064,
            28.00166,
            26.3065,
            25.36474,
            23.79514,
            23.04173,
            21.53491,
            20.65594,
            19.96531,
            18.27014,
            17.57952,
            16.63776,
            14.87981,
            14.25197,
            12.68237,
            12.05453,
            11.48947,
            9.919872,
            9.543168,
            8.726976,
            7.53408,
            6.90624,
            6.341184,
            5.148288,
            4.018176,
            3.515904,
            2.636928,
            1.632384,
            0.816192,
            0.753408,
            0.062784,
            -0.565056,
            -1.632384,
            -1.946304,
            -2.19744,
            -3.578688,
            -4.332096,
            -4.897152,
            -5.33664,
            -6.090048,
            -6.90624,
            -7.722432,
            -8.16192,
            -9.10368,
            -10.04544,
            -10.54771,
            -10.92442,
            -11.92896,
            -12.87072,
            -13.43578,
            -14.00083,
            -15.19373,
            -16.26106,
            -16.8889,
            -18.08179,
            -18.77242,
            -19.40026,
            -20.7815,
            -21.5977,
            -22.3511,
            -23.79514,
            -24.61133,
            -25.36474,
            -26.99712,
            -27.8761,
            -28.75507,
            -29.88518,
            -30.76416,
            -31.70592,
            -33.90336,
            -35.22182,
            -37.41927,
            -38.48659,
            -40.55846,
            -41.62579,
            -43.9488,
            -45.1417,
            -47.52749,
            -48.53203,
            -50.85504,
            -51.85958,
            -53.86867,
            -55.06157,
            -57.00787,
            -58.20077,
            -60.20985,
            -61.2144,
            -63.16071,
            -63.78854,
            -65.79763,
            -66.61382,
            -68.93683,
            -70.06694,
            -71.32262,
            -72.26438,
            -72.95501,
            -74.83853,
            -75.46637,
            -77.03596,
            -77.66381,
            -78.41721,
            -79.79846,
            -80.48909,
            -81.24249,
            -82.43539,
            -83.56551,
            -84.3817,
            -85.38624,
            -86.328,
            -87.1442,
            -87.96038,
            -88.90215,
            -89.52998,
            -90.28339,
            -91.09959,
            -91.72742,
            -91.79021,
            -92.73197,
            -93.10867,
            -93.48537,
            -93.54816,
            -93.67373,
            -90.34618,
            -90.40896,
            -90.53453,
            -90.34618,
            -89.90668,
            -89.52998,
            -88.96493,
            -88.90215,
            -88.39987,
            -87.8976,
            -87.33254,
            -86.64192,
            -86.13965,
            -86.01408,
            -85.38624,
            -84.63284,
            -83.81664,
            -83.37715,
            -83.1888,
            -82.3726,
            -81.43085,
            -80.61465,
            -80.23795,
            -79.48454,
            -78.60557,
            -78.04051,
            -77.66381,
            -76.72205,
            -75.84307,
            -75.27802,
            -74.5246,
            -73.45728,
            -71.95046,
            -68.56013,
            -67.30445,
            -64.3536,
            -63.16071,
            -61.77946,
            -59.83315,
            -58.70304,
            -56.5056,
            -55.68941,
            -54.74765,
            -52.86413,
            -52.04794,
            -50.54112,
            -49.72493,
            -49.09709,
            -47.15078,
            -46.33459,
            -44.76499,
            -44.3255,
            -43.63488,
            -42.3792,
            -41.62579,
            -40.99795,
            -39.86784,
            -38.61216,
            -37.98432,
            -36.4775,
            -35.91245,
            -35.22182,
            -33.90336,
            -33.27552,
            -32.52211,
            -31.32922,
            -30.70138,
            -30.26189,
            -28.88064,
            -28.19002,
            -27.49939,
            -26.36928,
            -24.98803,
            -24.42298,
            -23.1673,
            -21.9744,
            -21.5977,
            -20.34202,
            -19.40026,
            -18.96077,
            -18.01901,
            -17.07725,
            -16.44941,
            -16.19827,
            -15.3193,
            -14.44032,
            -13.49856,
            -13.31021,
            -13.24742,
            -12.68237,
            -11.92896,
            -11.11277,
            -10.67328,
            -10.48493,
            -9.543168,
            -8.664192,
            -7.973568,
            -7.094592,
            -6.90624,
            -5.901696,
            -5.399424,
            -4.959936,
            -5.273856,
            -4.771584,
            -3.578688,
            -2.51136,
            -1.820736,
            -1.318464,
            -0.251136,
            0.062784,
            0.816192,
            2.134656,
            2.950848,
            3.327552,
            4.959936,
            5.713344,
            6.152832,
            8.664192,
            9.166464,
            10.67328,
            11.30112,
            11.92896,
            13.81248,
            14.31475,
            16.51219,
            17.39117,
            18.8352,
            19.65139,
            21.03264,
            22.41389,
            23.41843,
            24.98803,
            25.74144,
            27.12269,
            28.12723,
            29.69683,
            31.32922,
            32.14541,
            34.02893,
            35.03347,
            36.66586,
            37.79597,
            39.42835,
            40.24454,
            41.62579,
            42.63034,
            43.44653,
            44.63942,
            45.58118,
            46.33459,
            47.59027,
            48.34368,
            48.59481,
            49.97606,
            50.98061,
            51.85958,
            52.86413,
            53.7431,
            54.05702,
            54.936,
            55.87776,
            56.25446,
            56.69395,
            57.51014,
            58.26355,
            59.07974,
            59.39367,
            60.0215,
            60.46099,
            61.08883,
            61.65389,
            61.84224,
            62.4073,
            62.84678,
            63.22349,
            63.66298,
            64.03968,
            64.22803,
            64.22803,
            64.54195,
            64.7303,
            64.85587,
            64.98144,
            65.04423,
            65.04423,
            64.98144,
            64.85587,
            64.79309,
            62.65843,
            62.65843,
            62.65843,
            62.65843,
            62.59565,
            62.21894,
            61.96781,
            61.65389,
            61.5911,
            61.2144,
            60.8377,
            57.44736,
            54.43373,
            52.73856,
            51.16896,
            49.59936,
            48.09254,
            46.58573,
            45.1417,
            43.82323,
            42.3792,
            41.24909,
            39.86784,
            38.8633,
            36.4775,
            35.59853,
            33.71501,
            32.71046,
            30.76416,
            29.94797,
            27.93888,
            26.74598,
            24.98803,
            24.17184,
            22.41389,
            21.53491,
            19.65139,
            18.77242,
            17.01446,
            16.0727,
            14.62867,
            13.81248,
            13.05907,
            11.48947,
            10.92442,
            10.10822,
            8.47584,
            7.722432,
            7.094592,
            5.713344,
            5.148288,
            4.39488,
            3.390336,
            2.385792,
            1.946304,
            1.25568,
            0.251136,
            -0.188352,
            -0.62784,
            -1.318464,
            -2.323008,
            -2.950848,
            -3.578688,
            -4.39488,
            -5.587776,
            -5.901696,
            -6.780672,
            -7.53408,
            -8.538624,
            -9.040896,
            -9.857088,
            -10.48493,
            -11.04998,
            -11.48947,
            -12.30566,
            -13.12186,
            -13.62413,
            -14.00083,
            -15.19373,
            -16.19827,
            -16.57498,
            -17.45395,
            -18.58406,
            -19.02355,
            -19.83974,
            -20.84429,
            -21.5977,
            -22.3511,
            -23.35565,
            -24.92525,
            -25.36474,
            -26.87155,
            -27.56218,
            -28.88064,
            -30.63859,
            -31.32922,
            -33.21273,
            -33.90336,
            -35.66131,
            -36.85421,
            -38.17267,
            -39.42835,
            -40.24454,
            -42.25363,
            -43.19539,
            -45.20448,
            -46.39738,
            -47.96698,
            -48.97152,
            -50.85504,
            -51.67123,
            -53.24083,
            -54.11981,
            -54.87321,
            -56.25446,
            -57.07066,
            -57.88685,
            -59.20531,
            -59.77037,
            -60.39821,
            -61.77946,
            -62.784,
            -63.53741,
            -64.54195,
            -65.54649,
            -65.73485,
            -66.80218,
            -67.55559,
            -68.49734,
            -68.6857,
            -69.56467,
            -70.31808,
            -70.94592,
            -71.13427,
            -71.57376,
            -72.26438,
            -72.64109,
            -73.08057,
            -73.70842,
            -73.89677,
            -74.08512,
            -74.65018,
            -75.02688,
            -75.21523,
            -75.3408,
            -75.90585,
            -75.84307,
            -75.90585,
            -76.03143,
            -76.21977,
            -76.03143,
            -76.03143,
            -72.07603,
            -71.95046,
            -72.26438,
            -72.26438,
            -71.95046,
            -72.07603,
            -71.69933,
            -71.51098,
            -71.07149,
            -70.75757,
            -70.50643,
            -69.69024,
            -69.31354,
            -68.87405,
            -68.30899,
            -67.30445,
            -65.35815,
            -62.21894,
            -60.8377,
            -59.45645,
            -58.26355,
            -56.88231,
            -55.68941,
            -53.11526,
            -52.04794,
            -49.91328,
            -49.09709,
            -47.15078,
            -46.14624,
            -44.57664,
            -43.9488,
            -42.25363,
            -41.43744,
            -40.93517,
            -39.36557,
            -38.48659,
            -37.79597,
            -36.1008,
            -35.41018,
            -34.65677,
            -33.08717,
            -32.33376,
            -31.64314,
            -30.07354,
            -29.4457,
            -28.69229,
            -26.99712,
            -26.49485,
            -25.61587,
            -24.10906,
            -23.41843,
            -22.72781,
            -21.40934,
            -20.59315,
            -19.96531,
            -18.96077,
            -18.08179,
            -17.45395,
            -16.38662,
            -15.44486,
            -14.69146,
            -13.81248,
            -12.87072,
            -12.30566,
            -11.61504,
            -10.67328,
            -10.29658,
            -9.857088,
            -9.040896,
            -8.099136,
            -7.785216,
            -7.345728,
            -6.59232,
            -5.776128,
            -5.211072,
            -4.897152,
            -4.143744,
            -3.1392,
            -2.51136,
            -2.323008,
            -2.19744,
            -1.5696,
            -0.816192,
            0.062784,
            0.188352,
            1.5696,
            2.762496,
            3.327552,
            4.771584,
            5.524992,
            5.96448,
            7.722432,
            8.350272,
            9.292032,
            10.35936,
            10.92442,
            11.48947,
            13.62413,
            13.81248,
            16.00992,
            16.51219,
            18.39571,
            19.27469,
            20.15366,
            22.53946,
            23.1673,
            24.7369,
            25.74144,
            26.49485,
            28.12723,
            28.69229,
            29.75962,
            31.51757,
            32.52211,
            34.09171,
            34.90791,
            36.85421,
            37.79597,
            39.36557,
            39.86784,
            41.37466,
            42.25363,
            42.94426,
            44.13715,
            44.95334,
            45.20448,
            46.33459,
            47.52749,
            47.96698,
            49.09709,
            49.78771,
            50.28999,
            50.72947,
            51.48288,
            52.36185,
            52.92691,
            53.30362,
            54.05702,
            54.74765,
            55.3127,
            55.43827,
            55.62663,
            56.25446,
            56.69395,
            56.81952,
            57.25901,
            57.51014,
            58.01242,
            58.0752,
            58.20077,
            58.64025,
            58.70304,
            58.82861,
            59.01696,
            58.89139,
            58.89139,
            58.82861,
            58.70304,
            58.4519,
            58.57747,
            57.88685,
            57.6985,
            57.44736,
            57.07066,
            56.69395,
            55.24992,
            52.48742,
            49.91328,
            47.52749,
            44.95334,
            42.3792,
            40.18176,
            38.0471,
            35.91245,
            34.02893,
            32.27098,
            30.51302,
            28.75507,
            27.49939,
            26.18093,
            24.79968,
            23.41843,
            21.84883,
            20.4048,
            18.8352,
            17.2656,
            16.00992,
            14.5031,
            13.31021,
            12.11731,
            10.54771,
            9.668736,
            7.282944,
            6.090048,
            4.143744,
            3.641472,
            2.009088,
            1.192896,
            0.94176,
            0.0,
            -1.381248,
            -1.381248,
            -3.013632,
            -3.892608,
            -4.959936,
            -5.524992,
            -6.341184,
            -6.969024,
            -7.722432,
            -8.47584,
            -9.10368,
            -9.857088,
            -10.48493,
            -11.11277,
            -12.05453,
            -12.61958,
            -13.12186,
            -13.87526,
            -14.44032,
            -14.87981,
            -15.63322,
            -16.0727,
            -16.8889,
            -17.57952,
            -18.20736,
            -18.77242,
            -19.46304,
            -20.15366,
            -20.84429,
            -21.78605,
            -22.53946,
            -23.41843,
            -24.10906,
            -24.98803,
            -25.92979,
            -26.87155,
            -27.8761,
            -28.88064,
            -29.88518,
            -30.88973,
            -32.08262,
            -33.08717,
            -35.47296,
            -36.85421,
            -37.98432,
            -39.42835,
            -40.74681,
            -41.93971,
            -43.13261,
            -44.3255,
            -45.58118,
            -47.90419,
            -48.90874,
            -51.23174,
            -52.11072,
            -53.05248,
            -54.24538,
            -54.99878,
            -56.19168,
            -56.81952,
            -57.76128,
            -58.57747,
            -59.45645,
            -60.0215,
            -60.58656,
            -61.40275,
            -61.84224,
            -62.59565,
            -63.16071,
            -63.53741,
            -64.16525,
            -64.7303,
            -65.29536,
            -65.73485,
            -66.11155,
            -66.55104,
            -66.92774,
            -67.68115,
            -68.30899,
            -68.49734,
            -68.74848,
            -68.93683,
            -69.37632,
            -69.37632,
            -69.75302,
            -69.94138,
            -69.94138,
            -70.44365,
            -70.69479,
            -70.75757,
            -70.94592,
            -71.07149,
            -70.94592,
            -71.07149,
            -71.07149,
            -71.13427,
            -71.07149,
            -71.32262,
            -70.94592,
            -70.88313,
            -70.94592,
            -70.75757,
            -70.56921,
            -70.50643,
            -70.12973,
            -69.94138,
            -69.69024,
            -69.31354,
            -69.0624,
            -68.74848,
            -68.49734,
            -67.93229,
            -67.36723,
            -67.1161,
            -66.55104,
            -65.60928,
            -64.91866,
            -61.2144,
            -57.38457,
            -55.68941,
            -53.86867,
            -51.73402,
            -50.10163,
            -48.53203,
            -46.89965,
            -45.58118,
            -44.19994,
            -43.13261,
            -40.99795,
            -39.80506,
            -37.6704,
            -36.85421,
            -34.65677,
            -33.71501,
            -32.64768,
            -31.70592,
            -30.51302,
            -28.56672,
            -27.75053,
            -25.55309,
            -24.54854,
            -22.22554,
            -21.53491,
            -20.34202,
            -19.40026,
            -18.4585,
            -16.76333,
            -15.82157,
            -14.18918,
            -13.49856,
            -12.05453,
            -11.42669,
            -10.67328,
            -10.42214,
            -9.480384,
            -8.915328,
            -8.47584,
            -7.848,
            -7.157376,
            -6.90624,
            -6.341184,
            -5.713344,
            -5.273856,
            -4.771584,
            -4.332096,
            -3.390336,
            -3.013632,
            -1.946304,
            -1.5696,
            -1.130112,
            -0.753408,
            -0.251136,
            0.0,
            1.25568,
            1.820736,
            2.385792,
            3.578688,
            3.955392,
            4.143744,
            4.959936,
            5.713344,
            7.345728,
            8.287488,
            9.166464,
            10.29658,
            11.11277,
            11.55226,
            13.05907,
            13.81248,
            14.62867,
            16.19827,
            17.01446,
            17.89344,
            20.15366,
            21.22099,
            22.85338,
            23.79514,
            25.74144,
            26.55763,
            28.37837,
            29.38291,
            31.51757,
            32.45933,
            34.46841,
            35.47296,
            37.10534,
            37.98432,
            38.80051,
            40.18176,
            41.06074,
            42.44198,
            42.81869,
            43.44653,
            44.76499,
            45.20448,
            45.83232,
            46.20902,
            46.89965,
            47.33913,
            47.90419,
            48.09254,
            48.59481,
            48.90874,
            49.47379,
            49.53658,
            50.16442,
            50.47834,
            50.85504,
            50.98061,
            51.16896,
            51.48288,
            51.92237,
            52.1735,
            52.36185,
            52.67578,
            52.67578,
            52.92691,
            53.11526,
            53.30362,
            53.49197,
            53.68032,
            53.7431,
            53.86867,
            53.93146,
            54.05702,
            53.86867,
            53.86867,
            54.05702,
            54.11981,
            53.86867,
            53.7431,
            53.68032,
            53.55475,
            53.42918,
            53.42918,
            53.11526,
            53.05248,
            52.67578,
            52.48742,
            52.1735,
            50.72947,
            46.58573,
            44.3255,
            42.00249,
            39.67949,
            37.60762,
            35.47296,
            33.52666,
            31.70592,
            29.94797,
            28.50394,
            26.99712,
            25.61587,
            24.36019,
            23.04173,
            21.5977,
            20.15366,
            18.58406,
            17.2656,
            15.82157,
            14.62867,
            12.30566,
            11.23834,
            8.78976,
            7.722432,
            6.215616,
            5.02272,
            3.390336,
            2.762496,
            1.444032,
            0.565056,
            0.062784,
            -1.192896,
            -2.699712,
            -3.515904,
            -5.148288,
            -6.2784,
            -6.90624,
            -8.47584,
            -9.040896,
            -9.73152,
            -10.48493,
            -11.67782,
            -12.11731,
            -13.43578,
            -14.44032,
            -15.00538,
            -15.82157,
            -17.01446,
            -17.45395,
            -17.95622,
            -18.4585,
            -18.96077,
            -19.33747,
            -19.77696,
            -20.53037,
            -21.03264,
            -21.53491,
            -21.9744,
            -22.72781,
            -23.29286,
            -23.98349,
            -24.48576,
            -25.30195,
            -25.92979,
            -26.55763,
            -28.12723,
            -28.88064,
            -30.63859,
            -31.45478,
            -32.33376,
            -34.21728,
            -35.22182,
            -37.23091,
            -38.36102,
            -40.37011,
            -41.56301,
            -43.32096,
            -44.38829,
            -46.14624,
            -47.15078,
            -48.72038,
            -49.72493,
            -51.48288,
            -52.23629,
            -53.05248,
            -54.30816,
            -54.99878,
            -55.62663,
            -56.81952,
            -57.57293,
            -57.88685,
            -58.26355,
            -58.95418,
            -59.6448,
            -59.83315,
            -60.39821,
            -60.64935,
            -61.2144,
            -62.03059,
            -62.4073,
            -62.90957,
            -63.22349,
            -63.34906,
            -63.97689,
            -64.29082,
            -64.7303,
            -64.7303,
            -65.10701,
            -65.35815,
            -65.54649,
            -65.60928,
            -65.60928,
            -65.9232,
            -66.11155,
            -66.17434,
            -66.2999,
            -66.2999,
            -66.48826,
            -66.55104,
            -66.48826,
            -66.55104,
            -66.55104,
            -66.7394,
            -66.67661,
            -66.36269,
            -65.35815,
            -64.3536,
            -64.3536,
            -64.3536,
            -64.29082,
            -64.3536,
            -64.29082,
            -64.10246,
            -63.78854,
            -63.53741,
            -63.41184,
            -63.22349,
            -63.03514,
            -62.72121,
            -62.53286,
            -62.15616,
            -61.77946,
            -61.5911,
            -61.2144,
            -59.2681,
            -56.56838,
            -53.80589,
            -52.48742,
            -51.04339,
            -49.91328,
            -47.71584,
            -46.52295,
            -44.3255,
            -43.32096,
            -41.56301,
            -40.8096,
            -39.17722,
            -38.61216,
            -37.6704,
            -36.28915,
            -35.47296,
            -34.65677,
            -33.27552,
            -32.45933,
            -31.70592,
            -30.26189,
            -29.50848,
            -28.69229,
            -27.37382,
            -26.6832,
            -25.86701,
            -24.36019,
            -23.41843,
            -22.60224,
            -21.34656,
            -20.59315,
            -19.77696,
            -18.20736,
            -17.57952,
            -17.01446,
            -15.63322,
            -15.06816,
            -14.25197,
            -12.99629,
            -12.43123,
            -11.74061,
            -10.67328,
            -9.543168,
            -9.166464,
            -8.287488,
            -7.471296,
            -6.969024,
            -6.780672,
            -5.776128,
            -5.085504,
            -4.206528,
            -3.955392,
            -3.201984,
            -2.574144,
            -1.820736,
            -1.5696,
            -1.381248,
            -1.506816,
            -0.94176,
            -0.376704,
            0.062784,
            0.439488,
            1.067328,
            1.444032,
            2.323008,
            2.950848,
            3.641472,
            4.206528,
            5.148288,
            5.96448,
            6.215616,
            6.780672,
            7.785216,
            8.978112,
            9.543168,
            10.35936,
            10.73606,
            11.67782,
            12.05453,
            13.68691,
            14.81702,
            15.13094,
            16.44941,
            17.39117,
            17.89344,
            19.27469,
            20.65594,
            21.34656,
            22.53946,
            23.73235,
            24.23462,
            25.36474,
            26.55763,
            27.31104,
            28.56672,
            29.13178,
            29.75962,
            31.07808,
            31.70592,
            32.14541,
            33.46387,
            34.5312,
            34.71955,
            36.03802,
            36.91699,
            37.2937,
            37.98432,
            38.8633,
            39.67949,
            39.99341,
            40.24454,
            41.24909,
            42.00249,
            42.44198,
            43.00704,
            43.19539,
            43.82323,
            44.57664,
            45.1417,
            45.39283,
            45.58118,
            45.95789,
            46.52295,
            46.89965,
            47.088,
            47.40192,
            47.77863,
            48.09254,
            48.34368,
            48.59481,
            48.90874,
            48.97152,
            49.28544,
            49.47379,
            49.47379,
            49.53658,
            49.72493,
            49.78771,
            49.66214,
            49.72493,
            49.66214,
            49.34822,
            49.28544,
            48.97152,
            48.78317,
            48.40646,
            48.09254,
            47.71584,
            47.52749,
            47.15078,
            46.58573,
            46.20902,
            45.70675,
            45.58118,
            45.20448,
            44.57664,
            44.13715,
            43.5721,
            43.19539,
            42.94426,
            42.56755,
            42.00249,
            41.62579,
            40.8096,
            40.05619,
            39.67949,
            39.36557,
            38.29824,
            37.79597,
            37.2937,
            36.91699,
            36.41472,
            35.03347,
            34.5312,
            31.32922,
            29.57126,
            27.93888,
            26.11814,
            24.61133,
            23.23008,
            21.78605,
            20.46758,
            18.96077,
            17.70509,
            16.26106,
            15.00538,
            12.68237,
            11.55226,
            9.919872,
            8.726976,
            6.529536,
            5.524992,
            3.829824,
            3.515904,
            1.632384,
            1.067328,
            -0.251136,
            -1.5696,
            -1.5696,
            -4.332096,
            -5.33664,
            -7.157376,
            -8.287488,
            -10.23379,
            -11.04998,
            -12.80794,
            -13.49856,
            -15.00538,
            -15.82157,
            -16.57498,
            -17.95622,
            -18.58406,
            -19.2119,
            -20.59315,
            -21.40934,
            -21.78605,
            -22.91616,
            -23.60678,
            -23.9207,
            -24.29741,
            -24.92525,
            -25.4903,
            -26.18093,
            -26.6832,
            -26.74598,
            -27.12269,
            -27.56218,
            -27.56218,
            -27.93888,
            -28.06445,
            -28.50394,
            -28.50394,
            -28.75507,
            -28.88064,
            -28.88064,
            -29.32013,
            -29.13178,
            -29.25734,
            -29.32013,
            -29.69683,
            -30.07354,
            -30.26189,
            -30.07354,
            -30.45024,
            -30.63859,
            -31.0153,
            -31.26643,
            -31.51757,
            -31.64314,
            -32.01984,
            -32.27098,
            -33.08717,
            -33.58944,
            -34.09171,
            -34.65677,
            -34.90791,
            -35.78688,
            -36.4775,
            -37.23091,
            -37.79597,
            -38.73773,
            -39.6167,
            -40.24454,
            -40.4329,
            -41.75136,
            -42.56755,
            -43.32096,
            -43.88602,
            -44.89056,
            -46.27181,
            -46.58573,
            -47.65306,
            -48.6576,
            -49.34822,
            -50.03885,
            -50.85504,
            -52.23629,
            -52.61299,
            -53.61753,
            -54.05702,
            -54.99878,
            -55.43827,
            -56.19168,
            -57.25901,
            -57.63571,
            -57.94963,
            -58.4519,
            -59.2681,
            -59.95872,
            -60.33542,
            -60.39821,
            -61.02605,
            -61.33997,
            -61.71667,
            -62.21894,
            -62.72121,
            -63.09792,
            -63.16071,
            -63.41184,
            -63.78854,
            -63.97689,
            -64.10246,
            -64.16525,
            -63.91411,
            -62.34451,
            -62.53286,
            -62.53286,
            -62.72121,
            -62.59565,
            -62.53286,
            -62.34451,
            -61.96781,
            -61.77946,
            -61.77946,
            -61.52832,
            -61.33997,
            -60.96326,
            -60.77491,
            -60.52378,
            -60.20985,
            -59.83315,
            -59.45645,
            -59.39367,
            -58.76582,
            -58.0752,
            -57.76128,
            -57.38457,
            -57.07066,
            -56.56838,
            -56.06611,
            -54.68486,
            -54.30816,
            -54.05702,
            -53.42918,
            -53.05248,
            -52.80135,
            -52.29907,
            -51.85958,
            -51.48288,
            -51.23174,
            -50.72947,
            -50.28999,
            -49.85049,
            -49.47379,
            -49.09709,
            -48.6576,
            -48.09254,
            -47.33913,
            -46.77408,
            -46.52295,
            -46.27181,
            -45.5184,
            -45.1417,
            -44.76499,
            -44.19994,
            -44.01159,
            -43.50931,
            -43.00704,
            -42.50477,
            -42.19085,
            -41.43744,
            -41.31187,
            -40.99795,
            -40.4329,
            -39.99341,
            -39.6167,
            -39.36557,
            -38.61216,
            -38.42381,
            -37.41927,
            -36.03802,
            -33.46387,
            -30.70138,
            -29.69683,
            -27.37382,
            -26.36928,
            -24.48576,
            -23.60678,
            -21.72326,
            -20.84429,
            -18.96077,
            -17.95622,
            -15.57043,
            -14.25197,
            -11.86618,
            -10.86163,
            -8.852544,
            -7.973568,
            -5.96448,
            -5.273856,
            -3.390336,
            -2.699712,
            -1.192896,
            -0.816192,
            0.062784,
            0.565056,
            2.260224,
            2.950848,
            3.641472,
            4.206528,
            4.834368,
            5.211072,
            5.96448,
            6.403968,
            6.780672,
            7.094592,
            7.596864,
            7.722432,
            8.099136,
            8.538624,
            8.664192,
            8.726976,
            9.10368,
            9.354816,
            9.480384,
            9.668736,
            9.668736,
            9.668736,
            9.73152,
            9.857088,
            9.857088,
            9.919872,
            9.982656,
            10.29658,
            10.17101,
            10.10822,
            10.17101,
            10.35936,
            10.17101,
            10.35936,
            10.29658,
            10.35936,
            10.48493,
            10.48493,
            10.48493,
            10.48493,
            10.73606,
            10.54771,
            10.73606,
            10.86163,
            10.67328,
            10.54771,
            10.73606,
            10.73606,
            10.86163,
            10.86163,
            10.92442,
            11.11277,
            11.30112,
            11.55226,
            11.86618,
            12.05453,
            12.30566,
            12.9335,
            12.68237,
            12.9335,
            13.43578,
            13.43578,
            13.87526,
            14.25197,
            14.69146,
            15.13094,
            15.25651,
            15.88435,
            16.19827,
            16.82611,
            17.07725,
            17.57952,
            18.08179,
            18.58406,
            19.08634,
            19.58861,
            19.96531,
            20.65594,
            21.15821,
            21.5977,
            21.9744,
            22.53946,
            23.35565,
            23.73235,
            24.42298,
            24.92525,
            25.74144,
            26.18093,
            26.62042,
            27.18547,
            27.75053,
            28.37837,
            28.94342,
            29.32013,
            30.07354,
            30.32467,
            30.88973,
            31.26643,
            31.64314,
            31.89427,
            32.52211,
            32.64768,
            33.08717,
            33.27552,
            33.84058,
            33.71501,
            34.21728,
            34.28006,
            34.65677,
            34.65677,
            35.28461,
            35.22182,
            35.59853,
            35.41018,
            35.72409,
            35.66131,
            36.22637,
            36.03802,
            36.28915,
            36.03802,
            36.60307,
            36.41472,
            36.41472,
            36.4775,
            36.79142,
            36.60307,
            36.4775,
            36.60307,
            36.4775,
            36.4775,
            36.4775,
            36.4775,
            36.28915,
            36.41472,
            36.28915,
            36.28915,
            36.03802,
            36.1008,
            35.72409,
            35.66131,
            35.59853,
            35.41018,
            35.22182,
            34.90791,
            34.84512,
            34.5312,
            34.28006,
            34.09171,
            34.21728,
            33.65223,
            33.52666,
            33.14995,
            33.08717,
            32.89882,
            32.14541,
            31.7687,
            31.64314,
            31.45478,
            30.95251,
            30.76416,
            30.51302,
            29.94797,
            29.75962,
            29.57126,
            29.06899,
            28.56672,
            28.12723,
            27.68774,
            27.49939,
            26.55763,
            25.55309,
            24.42298,
            23.79514,
            23.41843,
            22.85338,
            20.59315,
            16.51219,
            14.69146,
            12.9335,
            11.67782,
            9.919872,
            8.664192,
            6.969024,
            5.211072,
            4.143744,
            2.950848,
            1.632384,
            0.62784,
            -1.506816,
            -1.5696,
            -4.332096,
            -5.776128,
            -7.282944,
            -8.726976,
            -10.10822,
            -11.48947,
            -12.80794,
            -14.06362,
            -15.25651,
            -16.38662,
            -17.45395,
            -18.77242,
            -19.83974,
            -20.7815,
            -22.91616,
            -23.9207,
            -24.79968,
            -25.74144,
            -26.55763,
            -27.31104,
            -27.8761,
            -28.44115,
            -29.13178,
            -29.63405,
            -30.07354,
            -30.45024,
            -30.82694,
            -31.14086,
            -31.70592,
            -32.08262,
            -32.27098,
            -32.27098,
            -32.71046,
            -32.83603,
            -33.02438,
            -33.21273,
            -33.40109,
            -33.21273,
            -33.46387,
            -33.40109,
            -33.65223,
            -33.46387,
            -33.46387,
            -33.52666,
            -33.65223,
            -33.52666,
            -33.40109,
            -33.40109,
            -33.40109,
            -33.52666,
            -33.46387,
            -33.40109,
            -33.46387,
            -33.46387,
            -33.46387,
            -33.40109,
            -33.46387,
            -33.52666,
            -33.40109,
            -33.46387,
            -33.65223,
            -33.90336,
            -34.09171,
            -34.02893,
            -34.02893,
            -34.46841,
            -34.65677,
            -34.84512,
            -35.09626,
            -35.28461,
            -35.78688,
            -35.84966,
            -36.16359,
            -36.66586,
            -36.97977,
            -37.23091,
            -37.48205,
            -37.79597,
            -38.42381,
            -38.80051,
            -39.17722,
            -39.42835,
            -39.99341,
            -40.37011,
            -40.74681,
            -41.1863,
            -41.43744,
            -41.75136,
            -41.75136,
            -42.31642,
            -42.3792,
            -42.75591,
            -43.13261,
            -43.5721,
            -43.76045,
            -44.13715,
            -44.38829,
            -44.89056,
            -44.95334,
            -45.20448,
            -45.33005,
            -45.58118,
            -45.95789,
            -46.08345,
            -46.27181,
            -46.58573,
            -46.89965,
            -46.96243,
            -47.15078,
            -47.088,
            -47.4647,
            -47.52749,
            -47.65306,
            -47.52749,
            -47.77863,
            -47.90419,
            -48.09254,
            -47.77863,
            -47.96698,
            -48.09254,
            -47.96698,
            -47.96698,
            -47.4647,
            -46.96243,
            -46.7113,
            -46.77408,
            -46.89965,
            -46.89965,
            -46.7113,
            -46.52295,
            -46.58573,
            -46.46016,
            -46.14624,
            -46.08345,
            -45.95789,
            -45.76954,
            -45.5184,
            -45.20448,
            -44.95334,
            -43.13261,
            -42.50477,
            -42.31642,
            -42.31642,
            -41.93971,
            -41.62579,
            -41.1863,
            -40.8096,
            -40.62125,
            -40.24454,
            -39.99341,
            -39.55392,
            -38.8633,
            -38.80051,
            -38.23545,
            -37.85875,
            -37.41927,
            -36.97977,
            -36.60307,
            -35.97523,
            -35.47296,
            -35.09626,
            -34.59398,
            -34.02893,
            -33.65223,
            -33.21273,
            -32.64768,
            -32.08262,
            -31.70592,
            -30.82694,
            -30.51302,
            -30.07354,
            -29.4457,
            -29.06899,
            -28.44115,
            -27.8761,
            -27.31104,
            -26.6832,
            -25.86701,
            -25.4903,
            -24.61133,
            -23.98349,
            -23.29286,
            -22.03718,
            -20.96986,
            -20.15366,
            -13.87526,
            -12.68237,
            -12.11731,
            -11.61504,
            -10.92442,
            -10.42214,
            -8.350272,
            -5.399424,
            -4.143744,
            -2.82528,
            -1.632384,
            0.0,
            0.376704,
            2.009088,
            3.1392,
            3.578688,
            3.955392,
            4.834368,
            5.399424,
            5.96448,
            6.341184,
            6.59232,
            7.282944,
            7.973568,
            7.973568,
            8.350272,
            8.726976,
            8.978112,
            9.480384,
            9.857088,
            10.48493,
            10.54771,
            10.86163,
            11.30112,
            11.23834,
            11.3639,
            11.30112,
            11.55226,
            11.86618,
            11.48947,
            11.48947,
            11.74061,
            11.67782,
            11.55226,
            11.55226,
            11.67782,
            11.48947,
            11.23834,
            11.11277,
            11.30112,
            11.30112,
            11.11277,
            10.86163,
            10.92442,
            11.11277,
            11.11277,
            10.92442,
            10.73606,
            11.04998,
            10.73606,
            10.54771,
            10.35936,
            10.54771,
            10.67328,
            10.67328,
            10.48493,
            10.67328,
            10.73606,
            10.86163,
            10.86163,
            10.92442,
            11.04998,
            11.23834,
            11.30112,
            11.30112,
            11.48947,
            11.86618,
            11.92896,
            12.24288,
            12.05453,
            12.43123,
            12.43123,
            12.74515,
            12.9335,
            13.31021,
            13.49856,
            13.49856,
            13.81248,
            13.93805,
            13.93805,
            14.25197,
            14.44032,
            14.62867,
            15.00538,
            15.25651,
            15.25651,
            15.00538,
            15.44486,
            15.63322,
            15.50765,
            15.82157,
            16.19827,
            16.26106,
            16.44941,
            16.70054,
            17.01446,
            16.8889,
            17.07725,
            17.45395,
            17.39117,
            17.45395,
            17.70509,
            18.01901,
            17.89344,
            18.20736,
            18.58406,
            18.64685,
            18.64685,
            18.58406,
            18.89798,
            18.8352,
            18.64685,
            18.89798,
            19.08634,
            18.89798,
            19.02355,
            19.2119,
            19.40026,
            19.08634,
            19.08634,
            19.2119,
            19.02355,
            18.77242,
            18.89798,
            19.02355,
            18.8352,
            18.58406,
            18.8352,
            17.6423,
            17.20282,
            17.01446,
            17.01446,
            16.8889,
            16.51219,
            16.70054,
            16.44941,
            16.26106,
            16.19827,
            16.19827,
            16.00992,
            15.63322,
            15.82157,
            15.50765,
            15.13094,
            15.00538,
            15.00538,
            14.69146,
            14.44032,
            14.62867,
            14.44032,
            14.06362,
            13.81248,
            13.68691,
            13.24742,
            12.9335,
            13.05907,
            12.49402,
            12.43123,
            12.30566,
            12.05453,
            11.74061,
            11.48947,
            10.92442,
            8.350272,
            8.16192,
            7.973568,
            7.53408,
            6.780672,
            6.403968,
            5.96448,
            5.33664,
            5.211072,
            5.399424,
            4.583232,
            3.829824,
            3.641472,
            3.578688,
            2.82528,
            2.009088,
            1.25568,
            0.565056,
            0.376704,
            0.376704
        ]
    }
}