{
    "Name": "Galeota et al. 1996, CB2",
    "Type": "Rectangular",
    "fpc": 80.0,
    "fyt": 430.0,
    "fsut": 0.0,
    "fyl": 430.0,
    "fsul": 0.0,
    "Width": 250.0,
    "Depth": 250.0,
    "L_Inflection": 1140.0,
    "L_Measured": 1140.0,
    "TestConfiguration": "Double Ended",
    "AxLoad": 1000.0,
    "P_Delta": "Shear provided",
    "dlb": 20.0,
    "dlb_c": 20.0,
    "nlb": 12.0,
    "cc_per": 30.0,
    "nib_per": 2.0,
    "cc_par": 30.0,
    "nib_par": 2.0,
    "SubType": "RI: Rectangular and interlocking ties",
    "nsl": 4.0,
    "dtb_rcs": 8.0,
    "s_rcs": 50.0,
    "FailureType": "Flexure",
    "data": {
        "disp": [
            0.05,
            0.09,
            0.16,
            0.22,
            0.31,
            0.38,
            0.46,
            0.53,
            0.6,
            0.68,
            0.76,
            0.84,
            0.89,
            0.99,
            1.05,
            1.13,
            1.22,
            1.3,
            1.38,
            1.45,
            1.54,
            1.61,
            1.68,
            1.78,
            1.85,
            1.93,
            2.01,
            2.1,
            2.18,
            2.27,
            2.36,
            2.45,
            2.57,
            2.65,
            2.74,
            2.83,
            2.93,
            3.03,
            3.13,
            3.24,
            3.34,
            3.44,
            3.54,
            3.69,
            3.81,
            3.9,
            4.03,
            4.17,
            4.31,
            4.42,
            4.55,
            4.7,
            4.85,
            4.96,
            5.1,
            5.26,
            5.4,
            5.51,
            5.65,
            5.79,
            5.92,
            6.1,
            6.3,
            6.44,
            6.6,
            6.72,
            6.88,
            7.08,
            7.26,
            7.46,
            7.62,
            7.79,
            7.99,
            8.17,
            8.37,
            8.57,
            8.77,
            8.99,
            9.17,
            9.35,
            9.67,
            9.86,
            10.0,
            10.23,
            10.41,
            10.61,
            10.84,
            10.99,
            11.22,
            11.44,
            11.7,
            11.89,
            12.16,
            12.41,
            12.6,
            12.89,
            13.12,
            13.31,
            13.53,
            13.77,
            13.98,
            14.18,
            14.45,
            14.71,
            14.93,
            15.18,
            15.5,
            15.74,
            15.95,
            16.24,
            16.48,
            16.75,
            17.04,
            17.27,
            17.66,
            17.95,
            18.51,
            19.05,
            19.6,
            20.13,
            20.16,
            20.23,
            20.24,
            20.22,
            20.09,
            19.91,
            19.79,
            19.66,
            19.54,
            19.45,
            19.29,
            19.2,
            19.02,
            18.86,
            18.73,
            18.6,
            18.44,
            18.3,
            18.15,
            18.04,
            17.87,
            17.72,
            17.6,
            17.45,
            17.32,
            17.18,
            17.02,
            16.85,
            16.7,
            16.52,
            16.36,
            16.2,
            16.03,
            15.85,
            15.69,
            15.52,
            15.36,
            15.2,
            15.0,
            14.86,
            14.68,
            14.52,
            14.35,
            14.19,
            14.02,
            13.86,
            13.68,
            13.53,
            13.34,
            13.19,
            13.01,
            12.86,
            12.7,
            12.53,
            12.36,
            12.2,
            12.02,
            11.86,
            11.7,
            11.55,
            11.37,
            11.19,
            11.03,
            10.89,
            10.7,
            10.58,
            10.37,
            10.2,
            10.02,
            9.89,
            9.68,
            9.49,
            9.38,
            9.18,
            9.06,
            8.88,
            8.68,
            8.49,
            8.33,
            8.14,
            7.95,
            7.77,
            7.57,
            7.42,
            7.24,
            7.07,
            6.94,
            6.77,
            6.56,
            6.31,
            6.11,
            5.93,
            5.77,
            5.61,
            5.47,
            5.29,
            5.15,
            4.98,
            4.86,
            4.74,
            4.59,
            4.43,
            4.32,
            4.11,
            3.92,
            3.76,
            3.66,
            3.54,
            3.4,
            -2.5,
            -10.0,
            -18.51,
            -19.03,
            -19.23,
            -19.49,
            -19.84,
            -20.12,
            -20.43,
            -20.84,
            -21.18,
            -21.56,
            -21.89,
            -22.22,
            -22.58,
            -23.09,
            -23.52,
            -23.98,
            -24.43,
            -24.94,
            -25.49,
            -26.01,
            -26.56,
            -27.11,
            -27.61,
            -28.11,
            -28.66,
            -29.16,
            -29.69,
            -30.24,
            -30.78,
            -31.28,
            -31.79,
            -32.3,
            -32.78,
            -32.87,
            -32.87,
            -32.7,
            -32.54,
            -32.38,
            -32.23,
            -31.96,
            -31.81,
            -31.64,
            -31.47,
            -31.22,
            -31.06,
            -30.8,
            -30.55,
            -30.39,
            -30.14,
            -29.97,
            -29.8,
            -29.64,
            -29.39,
            -29.21,
            -28.97,
            -28.8,
            -28.54,
            -28.37,
            -28.12,
            -27.95,
            -27.76,
            -27.57,
            -27.37,
            -27.18,
            -26.98,
            -26.66,
            -26.48,
            -26.29,
            -26.09,
            -25.8,
            -25.61,
            -25.31,
            -25.02,
            -24.82,
            -24.52,
            -24.23,
            -24.04,
            -23.84,
            -23.55,
            -23.25,
            -23.05,
            -22.86,
            -22.66,
            -22.47,
            -22.17,
            -21.97,
            -21.68,
            -21.38,
            -21.18,
            -20.98,
            -20.68,
            -20.38,
            -20.05,
            -19.71,
            -19.48,
            -19.13,
            -18.78,
            -18.44,
            -18.08,
            -17.86,
            -17.52,
            -17.29,
            -16.96,
            -16.75,
            -16.54,
            -16.32,
            -16.0,
            -15.79,
            -15.46,
            -15.25,
            -14.92,
            -14.59,
            -14.38,
            -14.05,
            -13.73,
            -13.41,
            -13.1,
            -12.78,
            -12.46,
            -12.15,
            -11.83,
            -11.52,
            -11.32,
            -11.01,
            -10.8,
            -10.49,
            -10.18,
            -9.98,
            -9.67,
            -9.47,
            -9.16,
            -8.95,
            -8.65,
            -8.44,
            -8.14,
            -7.94,
            -7.64,
            -7.46,
            -7.12,
            -6.91,
            -6.74,
            -6.54,
            -6.32,
            -6.12,
            -5.93,
            -5.67,
            -5.37,
            -5.16,
            -4.91,
            -4.72,
            -4.46,
            -4.25,
            -4.0,
            -3.82,
            -3.53,
            -3.35,
            -3.07,
            -2.79,
            -2.52,
            -2.22,
            -2.03,
            -1.73,
            -1.52,
            -1.2,
            -0.96,
            -0.7,
            -0.43,
            -0.16,
            0.11,
            0.38,
            0.64,
            0.93,
            1.19,
            1.46,
            1.76,
            2.04,
            2.33,
            2.62,
            2.91,
            3.21,
            3.5,
            3.79,
            4.08,
            4.37,
            4.63,
            4.93,
            5.22,
            5.37,
            5.68,
            5.98,
            6.28,
            6.58,
            6.88,
            7.19,
            7.49,
            7.79,
            8.11,
            8.42,
            8.72,
            9.03,
            9.34,
            9.65,
            9.97,
            10.27,
            10.58,
            10.89,
            11.2,
            11.52,
            11.68,
            11.99,
            12.29,
            12.61,
            12.92,
            13.25,
            13.55,
            13.88,
            14.2,
            14.5,
            14.77,
            15.0,
            15.37,
            15.73,
            16.09,
            16.47,
            16.7,
            17.07,
            17.44,
            17.82,
            18.18,
            18.54,
            19.0,
            19.45,
            19.99,
            20.43,
            20.99,
            21.55,
            22.13,
            22.71,
            23.31,
            23.86,
            24.21,
            24.71,
            24.97,
            25.41,
            25.96,
            26.49,
            27.02,
            27.54,
            28.05,
            28.58,
            29.13,
            29.68,
            30.24,
            30.79,
            31.33,
            31.83,
            32.17,
            32.67,
            33.17,
            33.67,
            34.18,
            34.73,
            35.26,
            35.8,
            36.34,
            36.87,
            37.37,
            37.88,
            38.39,
            38.92,
            39.44,
            39.98,
            40.49,
            41.02,
            41.54,
            42.05,
            42.58,
            43.09,
            43.17,
            43.31,
            43.1,
            42.85,
            42.61,
            42.34,
            42.11,
            41.83,
            41.68,
            41.37,
            41.2,
            41.06,
            40.9,
            40.59,
            40.28,
            40.02,
            39.73,
            39.56,
            39.26,
            39.12,
            38.82,
            38.49,
            38.37,
            38.07,
            37.9,
            37.61,
            37.3,
            37.01,
            36.72,
            36.4,
            36.25,
            35.97,
            35.66,
            35.35,
            35.06,
            34.91,
            34.6,
            34.3,
            34.01,
            33.71,
            33.41,
            33.11,
            32.8,
            32.49,
            32.21,
            31.9,
            31.59,
            31.29,
            30.98,
            30.69,
            30.39,
            30.08,
            29.79,
            29.49,
            29.2,
            28.9,
            28.62,
            28.32,
            28.03,
            27.73,
            27.45,
            27.17,
            26.87,
            26.6,
            26.31,
            26.04,
            25.76,
            25.48,
            25.15,
            24.85,
            24.54,
            24.2,
            23.96,
            23.61,
            23.36,
            22.96,
            22.7,
            22.47,
            22.15,
            21.85,
            21.55,
            21.28,
            20.95,
            20.69,
            20.39,
            20.07,
            19.74,
            19.39,
            19.03,
            18.66,
            18.27,
            17.9,
            17.51,
            17.11,
            16.73,
            16.35,
            15.94,
            15.54,
            15.12,
            14.7,
            14.27,
            13.83,
            13.39,
            12.95,
            12.51,
            12.05,
            11.6,
            11.15,
            10.7,
            10.25,
            9.8,
            9.35,
            8.66,
            7.97,
            7.5,
            6.8,
            6.33,
            5.63,
            5.15,
            4.44,
            3.73,
            3.01,
            2.3,
            1.84,
            1.13,
            0.66,
            -0.04,
            -0.72,
            -1.18,
            -1.63,
            -2.3,
            -2.74,
            -3.18,
            -3.62,
            -4.06,
            -4.49,
            -4.92,
            -5.34,
            -5.77,
            -6.19,
            -6.62,
            -7.04,
            -7.46,
            -7.88,
            -8.3,
            -8.72,
            -9.12,
            -9.53,
            -10.13,
            -10.53,
            -10.93,
            -11.34,
            -11.74,
            -12.35,
            -12.75,
            -13.16,
            -13.57,
            -13.98,
            -14.39,
            -14.81,
            -15.22,
            -15.64,
            -16.06,
            -16.48,
            -16.9,
            -17.32,
            -17.97,
            -18.61,
            -19.27,
            -19.92,
            -20.36,
            -21.03,
            -21.47,
            -22.15,
            -22.83,
            -23.51,
            -24.21,
            -24.9,
            -25.6,
            -26.3,
            -27.02,
            -27.74,
            -28.48,
            -29.2,
            -29.71,
            -30.22,
            -30.97,
            -31.5,
            -32.02,
            -32.57,
            -33.14,
            -33.73,
            -34.29,
            -34.85,
            -35.42,
            -36.01,
            -36.59,
            -37.18,
            -37.78,
            -38.34,
            -39.18,
            -39.74,
            -40.25,
            -40.95,
            -41.45,
            -42.14,
            -42.84,
            -43.52,
            -44.16,
            -44.81,
            -45.46,
            -46.1,
            -46.75,
            -47.39,
            -48.04,
            -48.69,
            -49.34,
            -49.99,
            -50.64,
            -51.28,
            -51.88,
            -52.44,
            -52.99,
            -53.57,
            -54.1,
            -54.63,
            -55.27,
            -55.92,
            -56.54,
            -57.19,
            -57.8,
            -58.32,
            -58.96,
            -59.61,
            -60.25,
            -60.89,
            -61.51,
            -62.15,
            -62.71,
            -63.23,
            -63.78,
            -64.28,
            -64.84,
            -65.44,
            -65.99,
            -66.53,
            -67.04,
            -67.55,
            -68.05,
            -68.67,
            -69.18,
            -69.47,
            -69.65,
            -70.03,
            -70.56,
            -70.93,
            -71.05,
            -71.03,
            -70.86,
            -70.64,
            -70.35,
            -70.08,
            -69.79,
            -69.54,
            -69.36,
            -69.12,
            -68.88,
            -68.64,
            -68.4,
            -68.22,
            -67.92,
            -67.67,
            -67.37,
            -67.14,
            -66.86,
            -66.55,
            -66.27,
            -66.02,
            -65.77,
            -65.51,
            -65.28,
            -65.03,
            -64.79,
            -64.54,
            -64.29,
            -64.05,
            -63.78,
            -63.54,
            -63.3,
            -62.96,
            -62.63,
            -62.23,
            -62.03,
            -61.63,
            -61.24,
            -60.8,
            -60.37,
            -59.95,
            -59.52,
            -59.09,
            -58.87,
            -58.44,
            -58.02,
            -57.6,
            -57.22,
            -56.82,
            -56.4,
            -55.99,
            -55.57,
            -55.16,
            -54.75,
            -54.36,
            -53.93,
            -53.53,
            -53.34,
            -52.91,
            -52.48,
            -52.06,
            -51.65,
            -51.23,
            -50.81,
            -50.39,
            -49.94,
            -49.53,
            -49.11,
            -48.69,
            -48.27,
            -47.84,
            -47.45,
            -47.05,
            -46.65,
            -46.18,
            -45.78,
            -45.42,
            -45.05,
            -44.64,
            -44.26,
            -43.76,
            -43.36,
            -43.0,
            -42.68,
            -42.38,
            -41.89,
            -41.47,
            -41.01,
            -40.55,
            -39.85,
            -39.38,
            -38.89,
            -38.44,
            -37.95,
            -37.46,
            -36.96,
            -36.45,
            -35.88,
            -35.28,
            -34.59,
            -33.93,
            -33.24,
            -32.53,
            -31.81,
            -31.06,
            -30.31,
            -29.55,
            -28.79,
            -28.02,
            -27.25,
            -26.5,
            -25.72,
            -24.94,
            -24.15,
            -23.36,
            -22.56,
            -21.77,
            -20.98,
            -20.17,
            -19.36,
            -18.55,
            -17.76,
            -16.97,
            -16.17,
            -15.38,
            -14.58,
            -13.78,
            -12.99,
            -12.2,
            -11.42,
            -10.64,
            -9.85,
            -9.08,
            -8.31,
            -7.54,
            -6.77,
            -6.02,
            -5.26,
            -4.51,
            -3.76,
            -3.01,
            -2.26,
            -1.53,
            -0.8,
            0.29,
            1.03,
            1.76,
            2.49,
            3.2,
            3.92,
            4.64,
            5.36,
            6.06,
            6.78,
            7.49,
            8.21,
            8.92,
            9.63,
            10.34,
            11.07,
            11.78,
            12.5,
            13.23,
            13.96,
            14.68,
            15.42,
            16.17,
            16.92,
            17.66,
            18.43,
            19.22,
            19.92,
            20.66,
            21.41,
            22.18,
            22.94,
            23.68,
            24.44,
            25.18,
            25.94,
            26.71,
            27.47,
            28.25,
            29.04,
            29.81,
            30.58,
            31.35,
            32.16,
            32.96,
            33.75,
            34.57,
            35.38,
            36.19,
            37.01,
            37.79,
            38.49,
            39.15,
            39.73,
            40.26,
            40.86,
            41.6,
            42.13,
            42.65,
            43.06,
            43.62,
            43.72,
            43.49,
            43.27,
            42.74,
            42.41,
            42.07,
            41.75,
            41.44,
            41.13,
            40.79,
            40.46,
            40.15,
            39.82,
            39.49,
            39.15,
            38.83,
            38.5,
            38.17,
            37.87,
            37.52,
            37.2,
            36.88,
            36.53,
            36.22,
            35.89,
            35.56,
            35.23,
            34.9,
            34.52,
            34.16,
            33.78,
            33.37,
            32.97,
            32.57,
            32.15,
            31.72,
            31.33,
            30.94,
            30.53,
            30.14,
            29.74,
            29.36,
            28.98,
            28.58,
            28.19,
            27.8,
            27.41,
            27.02,
            26.64,
            26.32,
            26.02,
            25.71,
            25.39,
            25.04,
            24.72,
            24.41,
            24.12,
            23.81,
            23.34,
            23.04,
            22.79,
            22.3,
            21.93,
            21.62,
            21.22,
            20.84,
            20.6,
            20.29,
            19.97,
            19.62,
            19.27,
            18.92,
            18.56,
            18.2,
            17.83,
            17.45,
            17.06,
            16.67,
            16.28,
            15.88,
            15.48,
            15.08,
            14.58,
            14.16,
            13.75,
            12.9,
            12.48,
            12.04,
            11.19,
            10.34,
            9.47,
            8.75,
            8.19,
            7.56,
            6.65,
            5.73,
            4.78,
            3.85,
            2.9,
            1.95,
            0.99,
            0.05,
            -0.9,
            -1.84,
            -2.77,
            -3.7,
            -4.63,
            -5.55,
            -6.45,
            -7.36,
            -8.27,
            -9.17,
            -10.07,
            -10.97,
            -11.42,
            -12.33,
            -13.22,
            -13.97,
            -14.73,
            -15.5,
            -16.27,
            -17.05,
            -17.83,
            -18.62,
            -19.41,
            -20.21,
            -21.01,
            -21.82,
            -22.64,
            -23.45,
            -24.27,
            -25.1,
            -25.93,
            -26.79,
            -27.63,
            -28.48,
            -29.34,
            -30.2,
            -31.06,
            -31.92,
            -32.8,
            -33.67,
            -34.55,
            -35.5,
            -36.31,
            -37.24,
            -38.11,
            -39.03,
            -39.92,
            -40.83,
            -41.73,
            -42.67,
            -43.6,
            -44.51,
            -45.44,
            -46.37,
            -47.3,
            -48.22,
            -49.17,
            -50.11,
            -51.04,
            -51.99,
            -52.95,
            -53.91,
            -54.86,
            -55.81,
            -56.75,
            -57.6,
            -58.46,
            -59.29,
            -60.12,
            -60.93,
            -61.63,
            -62.33,
            -63.0,
            -63.72,
            -64.35,
            -64.92,
            -65.54,
            -66.08,
            -66.45,
            -66.57,
            -66.66,
            -66.9,
            -67.44,
            -68.02,
            -68.54,
            -69.06,
            -69.43,
            -69.94,
            -70.49,
            -71.07,
            -71.58,
            -71.7,
            -71.67,
            -71.57,
            -71.24,
            -70.89,
            -70.56,
            -70.29,
            -70.02,
            -69.75,
            -69.48,
            -69.17,
            -68.88,
            -68.53,
            -68.22,
            -67.89,
            -67.54,
            -67.18,
            -66.79,
            -66.41,
            -66.04,
            -65.7,
            -65.38,
            -65.03,
            -64.69,
            -64.39,
            -64.04,
            -63.7,
            -63.39,
            -63.04,
            -62.7,
            -62.32,
            -61.91,
            -61.5,
            -61.09,
            -60.69,
            -60.27,
            -59.87,
            -59.45,
            -59.06,
            -58.7,
            -58.32,
            -57.93,
            -57.54,
            -57.16,
            -56.75,
            -56.37,
            -56.0,
            -55.62,
            -55.22,
            -54.83,
            -54.43,
            -54.03,
            -53.6,
            -53.22,
            -52.79,
            -52.4,
            -51.99,
            -51.58,
            -51.17,
            -50.77,
            -50.36,
            -49.95,
            -49.55,
            -49.16,
            -48.77,
            -48.38,
            -47.99,
            -47.42,
            -46.91,
            -46.51,
            -45.78,
            -45.4,
            -44.96,
            -44.6,
            -44.29,
            -43.81,
            -43.19,
            -42.79,
            -42.41,
            -41.99,
            -41.57,
            -41.15,
            -40.72,
            -40.33,
            -39.92,
            -39.5,
            -39.05,
            -38.62,
            -38.16,
            -37.24,
            -36.78,
            -35.8,
            -34.82,
            -34.29,
            -33.79,
            -33.27,
            -32.76,
            -32.23,
            -31.72,
            -31.2,
            -30.67,
            -30.13,
            -29.6,
            -29.07,
            -28.54,
            -28.0,
            -27.46,
            -26.92,
            -26.37,
            -25.84,
            -25.29,
            -24.75,
            -24.21,
            -23.66,
            -23.11,
            -22.56,
            -22.03,
            -21.47,
            -20.94,
            -20.37,
            -19.83,
            -19.29,
            -18.72,
            -18.2,
            -17.62,
            -17.1,
            -16.54,
            -15.99,
            -15.45,
            -14.89,
            -14.36,
            -13.81,
            -13.26,
            -12.73,
            -12.18,
            -11.65,
            -11.1,
            -10.57,
            -10.03,
            -9.49,
            -8.97,
            -8.41,
            -7.9,
            -7.37,
            -6.83,
            -6.31,
            -5.77,
            -5.26,
            -4.73,
            -4.21,
            -3.69,
            -3.17,
            -2.66,
            -2.14,
            -1.62,
            -1.11,
            -0.6,
            -0.1,
            0.42,
            0.92,
            1.44,
            1.94,
            2.44,
            2.95,
            3.45,
            4.44,
            4.94,
            5.44,
            5.94,
            6.44,
            6.95,
            7.94,
            8.94,
            9.93,
            10.43,
            11.43,
            12.43,
            12.94,
            13.95,
            14.46,
            15.48,
            15.98,
            16.49,
            17.01,
            17.52,
            18.03,
            18.55,
            19.07,
            19.57,
            20.09,
            20.61,
            21.16,
            21.68,
            22.2,
            22.73,
            23.25,
            23.79,
            24.32,
            24.85,
            25.38,
            25.93,
            26.47,
            27.02,
            27.55,
            28.08,
            28.62,
            29.16,
            29.7,
            30.25,
            30.79,
            31.34,
            31.89,
            32.43,
            32.98,
            33.53,
            34.07,
            34.62,
            35.19,
            35.75,
            36.29,
            36.87,
            37.41,
            37.97,
            38.53,
            39.08,
            39.64,
            40.2,
            40.75,
            41.3,
            41.83,
            42.37,
            43.26,
            43.81,
            43.92,
            43.99,
            43.92,
            43.6,
            43.18,
            42.78,
            42.34,
            41.94,
            41.54,
            41.1,
            40.71,
            40.28,
            39.86,
            39.43,
            39.05,
            38.65,
            38.22,
            37.8,
            37.4,
            36.97,
            36.55,
            36.14,
            35.72,
            35.31,
            34.89,
            34.47,
            34.05,
            33.62,
            33.2,
            32.77,
            32.34,
            31.92,
            31.48,
            31.05,
            30.66,
            30.22,
            29.83,
            29.41,
            29.0,
            28.19,
            27.78,
            27.4,
            27.08,
            26.76,
            26.46,
            26.09,
            25.74,
            25.42,
            25.1,
            24.75,
            24.47,
            23.94,
            23.66,
            23.29,
            22.82,
            22.33,
            22.03,
            21.77,
            21.5,
            21.36,
            21.35,
            21.11,
            20.55,
            20.22,
            19.9,
            19.52,
            19.15,
            18.77,
            18.38,
            17.98,
            17.56,
            17.17,
            16.77,
            16.35,
            15.95,
            15.53,
            15.14,
            14.7,
            14.27,
            13.38,
            12.95,
            12.05,
            11.62,
            10.74,
            9.85,
            8.94,
            8.03,
            7.12,
            6.2,
            5.25,
            4.3,
            3.35,
            2.39,
            1.43,
            0.49,
            -0.48,
            -1.44,
            -2.4,
            -3.35,
            -4.31,
            -5.23,
            -6.17,
            -7.11,
            -7.57,
            -8.5,
            -9.44,
            -10.36,
            -11.29,
            -12.21,
            -13.13,
            -13.6,
            -14.54,
            -15.47,
            -16.4,
            -17.35,
            -18.3,
            -19.25,
            -20.22,
            -21.19,
            -22.15,
            -23.11,
            -23.61,
            -24.59,
            -25.1,
            -26.09,
            -26.59,
            -27.1,
            -27.6,
            -28.1,
            -28.62,
            -29.12,
            -29.63,
            -30.14,
            -30.64,
            -31.16,
            -31.67,
            -32.18,
            -32.7,
            -33.21,
            -33.74,
            -34.24,
            -34.77,
            -35.29,
            -35.79,
            -36.31,
            -36.84,
            -37.37,
            -37.88,
            -38.41,
            -39.03,
            -40.04,
            -40.59,
            -41.1,
            -41.61,
            -42.14,
            -42.67,
            -43.23,
            -43.77,
            -44.3,
            -44.83,
            -45.36,
            -45.9,
            -46.43,
            -46.97,
            -47.51,
            -48.07,
            -48.61,
            -49.15,
            -49.69,
            -50.24,
            -50.79,
            -51.34,
            -51.9,
            -52.43,
            -52.99,
            -53.5,
            -54.05,
            -54.59,
            -55.14,
            -55.66,
            -56.22,
            -56.78,
            -57.33,
            -57.9,
            -58.48,
            -59.01,
            -59.58,
            -60.14,
            -60.71,
            -61.27,
            -61.85,
            -62.41,
            -62.98,
            -63.54,
            -64.14,
            -64.69,
            -65.26,
            -65.77,
            -66.64,
            -67.55,
            -68.52,
            -69.47,
            -70.01,
            -70.65,
            -71.18,
            -71.4,
            -71.71,
            -71.68,
            -71.66,
            -71.31,
            -70.91,
            -70.5,
            -70.18,
            -69.78,
            -69.39,
            -69.01,
            -68.64,
            -68.26,
            -67.89,
            -67.51,
            -67.13,
            -66.76,
            -66.39,
            -66.01,
            -65.62,
            -65.24,
            -64.86,
            -64.5,
            -64.11,
            -63.73,
            -63.35,
            -62.94,
            -62.52,
            -62.11,
            -61.71,
            -61.34,
            -60.91,
            -60.51,
            -60.11,
            -59.72,
            -59.34,
            -58.96,
            -58.57,
            -58.18,
            -57.81,
            -57.43,
            -57.07,
            -56.68,
            -56.31,
            -55.92,
            -55.54,
            -55.16,
            -54.73,
            -54.33,
            -53.92,
            -53.5,
            -53.12,
            -52.7,
            -52.3,
            -51.88,
            -51.48,
            -51.07,
            -50.68,
            -50.3,
            -49.89,
            -49.53,
            -49.16,
            -48.62,
            -48.07,
            -47.7,
            -47.33,
            -46.95,
            -46.31,
            -45.79,
            -45.22,
            -44.67,
            -44.29,
            -43.91,
            -43.48,
            -43.07,
            -42.66,
            -42.22,
            -41.83,
            -41.46,
            -41.05,
            -40.62,
            -40.18,
            -39.74,
            -39.29,
            -38.84,
            -38.37,
            -37.88,
            -37.4,
            -36.91,
            -36.4,
            -35.42,
            -34.92,
            -34.4,
            -33.89,
            -33.37,
            -32.85,
            -32.35,
            -31.81,
            -31.29,
            -30.77,
            -30.24,
            -29.72,
            -29.18,
            -28.64,
            -28.11,
            -27.57,
            -27.04,
            -26.49,
            -25.96,
            -25.41,
            -24.87,
            -24.34,
            -23.79,
            -23.24,
            -22.71,
            -22.16,
            -21.63,
            -21.06,
            -20.54,
            -19.98,
            -19.45,
            -18.89,
            -18.35,
            -17.79,
            -17.24,
            -16.72,
            -16.15,
            -15.63,
            -15.06,
            -14.54,
            -13.97,
            -13.45,
            -12.89,
            -12.37,
            -11.82,
            -11.28,
            -10.76,
            -10.19,
            -9.68,
            -9.13,
            -8.6,
            -8.07,
            -7.53,
            -7.01,
            -6.47,
            -5.95,
            -5.43,
            -4.89,
            -4.37,
            -3.84,
            -3.33,
            -2.81,
            -2.29,
            -1.78,
            -1.25,
            -0.74,
            -0.22,
            0.29,
            0.8,
            1.31,
            1.83,
            2.34,
            2.85,
            3.37,
            3.87,
            4.39,
            4.89,
            5.39,
            5.91,
            6.41,
            6.91,
            7.43,
            7.94,
            8.96,
            9.47,
            9.98,
            10.49,
            11.0,
            11.51,
            12.02,
            12.53,
            13.05,
            13.57,
            14.08,
            14.6,
            15.12,
            15.63,
            16.16,
            16.67,
            17.2,
            17.73,
            18.25,
            18.78,
            19.31,
            19.83,
            20.36,
            20.99,
            21.95,
            22.53,
            23.05,
            23.56,
            24.11,
            24.65,
            25.18,
            25.72,
            26.3,
            26.84,
            27.38,
            27.94,
            28.5,
            29.03,
            29.6,
            30.14,
            30.7,
            31.25,
            31.81,
            32.36,
            32.93,
            33.47,
            34.02,
            34.57,
            35.11,
            35.66,
            36.21,
            36.76,
            37.31,
            37.85,
            38.45,
            39.01,
            39.59,
            40.44,
            41.18,
            41.98,
            42.83,
            43.67,
            44.23,
            44.32,
            44.36,
            44.27,
            43.9,
            43.47,
            43.06,
            42.62,
            42.2,
            41.79,
            41.37,
            40.94,
            40.52,
            40.11,
            39.7,
            39.27,
            38.87,
            38.44,
            38.01,
            37.6,
            37.18,
            36.76,
            36.34,
            35.94,
            35.51,
            35.1,
            34.66,
            34.24,
            33.83,
            33.4,
            32.98,
            32.56,
            31.72,
            31.29,
            30.88,
            30.46,
            30.05,
            29.64,
            29.22,
            28.83,
            28.5,
            28.18,
            27.86,
            27.49,
            27.12,
            26.76,
            26.42,
            26.11,
            25.81,
            25.36,
            24.84,
            24.5,
            24.08,
            23.71,
            23.31,
            22.92,
            22.46,
            22.18,
            21.59,
            21.3,
            20.99,
            20.67,
            20.02,
            19.7,
            19.38,
            19.04,
            18.36,
            17.98,
            17.64,
            16.95,
            16.24,
            15.52,
            15.17,
            14.43,
            13.69,
            12.95,
            12.22,
            11.47,
            10.72,
            9.98,
            9.22,
            8.45,
            7.67,
            6.9,
            6.11,
            5.32,
            4.51,
            3.7,
            2.9,
            2.09,
            1.27,
            0.47,
            -0.36,
            -1.16,
            -1.98,
            -2.8,
            -3.61,
            -4.43,
            -5.23,
            -6.03,
            -6.84,
            -7.64,
            -8.44,
            -9.24,
            -10.04,
            -10.84,
            -11.63,
            -12.44,
            -13.24,
            -14.04,
            -14.84,
            -15.65,
            -16.46,
            -17.27,
            -18.09,
            -18.91,
            -19.73,
            -20.56,
            -21.39,
            -22.23,
            -23.06,
            -23.91,
            -24.76,
            -25.61,
            -26.47,
            -27.33,
            -28.2,
            -29.07,
            -29.94,
            -30.8,
            -31.68,
            -32.56,
            -33.45,
            -34.33,
            -35.21,
            -36.07,
            -36.95,
            -37.83,
            -38.71,
            -39.58,
            -40.4,
            -41.22,
            -42.04,
            -42.84,
            -43.63,
            -44.39,
            -45.19,
            -45.97,
            -46.81,
            -47.53,
            -48.27,
            -49.02,
            -49.82,
            -50.57,
            -51.28,
            -51.96,
            -52.64,
            -53.29,
            -53.96,
            -54.61,
            -55.27,
            -55.92,
            -56.52,
            -57.16,
            -57.78,
            -58.41,
            -59.0,
            -59.59,
            -60.2,
            -60.8,
            -61.42,
            -62.0,
            -62.58,
            -63.19,
            -63.8,
            -64.37,
            -64.98,
            -65.53,
            -66.18,
            -66.75,
            -67.38,
            -67.94,
            -68.51,
            -69.03,
            -69.55,
            -70.11,
            -70.58,
            -71.12,
            -71.62,
            -71.95,
            -71.92,
            -71.54,
            -71.19,
            -70.8,
            -70.44,
            -70.08,
            -69.69,
            -69.32,
            -68.96,
            -68.54,
            -68.21,
            -67.78,
            -67.42,
            -67.06,
            -66.69,
            -66.29,
            -65.93,
            -65.54,
            -65.17,
            -64.82,
            -64.41,
            -64.03,
            -63.62,
            -63.23,
            -62.82,
            -62.41,
            -62.0,
            -61.61,
            -61.18,
            -60.78,
            -60.4,
            -60.01,
            -59.63,
            -59.26,
            -58.86,
            -58.48,
            -58.13,
            -57.75,
            -57.34,
            -56.97,
            -56.6,
            -56.19,
            -55.8,
            -55.42,
            -55.04,
            -54.63,
            -54.2,
            -53.82,
            -53.41,
            -53.01,
            -52.6,
            -52.17,
            -51.78,
            -51.38,
            -50.98,
            -50.58,
            -50.2,
            -49.82,
            -49.49,
            -49.15,
            -48.78,
            -48.38,
            -48.02,
            -47.65,
            -47.32,
            -46.78,
            -46.23,
            -45.69,
            -45.39,
            -45.01,
            -44.6,
            -44.21,
            -43.77,
            -43.37,
            -42.96,
            -42.57,
            -41.78,
            -41.34,
            -40.92,
            -40.47,
            -39.58,
            -39.13,
            -38.64,
            -38.15,
            -37.65,
            -37.16,
            -36.66,
            -36.16,
            -35.65,
            -34.65,
            -34.13,
            -33.62,
            -33.1,
            -32.59,
            -32.07,
            -31.54,
            -31.02,
            -30.49,
            -29.97,
            -29.44,
            -28.9,
            -28.38,
            -27.83,
            -27.31,
            -26.78,
            -26.23,
            -25.69,
            -25.16,
            -24.62,
            -24.09,
            -23.54,
            -23.0,
            -22.46,
            -21.91,
            -21.38,
            -20.82,
            -20.3,
            -19.74,
            -19.21,
            -18.65,
            -18.11,
            -17.57,
            -17.03,
            -16.48,
            -15.95,
            -15.39,
            -14.85,
            -14.31,
            -13.77,
            -13.22,
            -12.69,
            -12.14,
            -11.6,
            -11.08,
            -10.52,
            -10.0,
            -9.46,
            -8.92,
            -8.39,
            -7.85,
            -7.33,
            -6.79,
            -6.25,
            -5.73,
            -5.2,
            -4.66,
            -4.15,
            -3.61,
            -3.09,
            -2.57,
            -2.05,
            -1.52,
            -1.0,
            -0.47,
            0.05,
            0.58,
            1.18,
            2.17,
            2.7,
            3.68,
            4.2,
            4.73,
            5.23,
            5.75,
            6.26,
            6.78,
            7.3,
            7.81,
            8.33,
            8.85,
            9.38,
            9.89,
            10.42,
            10.94,
            11.46,
            11.99,
            12.49,
            13.02,
            13.56,
            14.08,
            14.6,
            15.12,
            15.65,
            16.18,
            16.71,
            17.24,
            17.76,
            18.3,
            18.84,
            19.37,
            19.92,
            20.44,
            20.98,
            21.52,
            22.05,
            22.59,
            23.15,
            23.67,
            24.21,
            24.76,
            25.3,
            25.86,
            26.42,
            26.98,
            27.52,
            28.09,
            28.64,
            29.19,
            29.75,
            30.31,
            30.87,
            31.42,
            31.98,
            32.53,
            33.1,
            33.68,
            34.24,
            34.81,
            35.37,
            35.93,
            36.5,
            37.07,
            37.63,
            38.2,
            38.78,
            39.37,
            39.93,
            40.51,
            41.09,
            41.66,
            42.23,
            42.79,
            43.37,
            43.95,
            44.52,
            45.1,
            45.69,
            46.26,
            46.82,
            47.4,
            47.97,
            48.53,
            49.06,
            49.61,
            50.15,
            50.7,
            51.23,
            51.77,
            52.31,
            52.85,
            53.43,
            53.99,
            54.55,
            55.12,
            55.71,
            56.28,
            56.83,
            57.44,
            58.0,
            59.04,
            59.55,
            60.1,
            60.67,
            61.25,
            61.83,
            62.42,
            63.0,
            63.53,
            64.12,
            64.69,
            65.26,
            66.18,
            66.68,
            67.59,
            68.27,
            68.73,
            68.81,
            68.73,
            68.6,
            68.3,
            67.96,
            67.54,
            67.1,
            66.73,
            66.3,
            65.86,
            65.43,
            65.03,
            64.6,
            64.2,
            63.77,
            63.36,
            62.93,
            62.51,
            62.1,
            61.68,
            61.25,
            60.82,
            60.4,
            60.02,
            59.63,
            59.2,
            58.79,
            58.36,
            57.96,
            57.56,
            57.18,
            56.78,
            56.4,
            55.98,
            55.64,
            55.3,
            55.01,
            54.67,
            54.27,
            53.91,
            53.55,
            53.2,
            52.92,
            52.62,
            52.16,
            51.88,
            51.42,
            51.13,
            50.83,
            50.36,
            49.95,
            49.52,
            49.18,
            48.82,
            48.45,
            48.07,
            47.69,
            47.3,
            46.94,
            46.53,
            46.13,
            45.74,
            45.87,
            45.56,
            45.19,
            44.8,
            44.37,
            43.96,
            43.56,
            43.15,
            42.73,
            42.3,
            41.88,
            41.43,
            41.0,
            40.56,
            39.69,
            39.24,
            38.82,
            38.36,
            37.49,
            36.58,
            35.68,
            34.73,
            33.79,
            32.82,
            31.86,
            30.86,
            29.88,
            29.37,
            28.87,
            28.37,
            27.84,
            27.33,
            26.83,
            26.3,
            25.79,
            25.27,
            24.74,
            24.21,
            23.69,
            23.15,
            22.63,
            22.11,
            21.57,
            21.04,
            20.51,
            19.97,
            19.44,
            18.9,
            18.37,
            17.85,
            17.31,
            16.77,
            16.23,
            15.71,
            15.17,
            14.63,
            14.1,
            13.57,
            13.03,
            12.51,
            11.95,
            11.41,
            10.89,
            10.35,
            9.82,
            9.29,
            8.73,
            8.21,
            7.68,
            7.14,
            6.61,
            6.08,
            5.01,
            4.42,
            3.92,
            3.41,
            2.88,
            2.36,
            1.83,
            1.29,
            0.78,
            0.24,
            -0.27,
            -0.79,
            -1.33,
            -1.83,
            -2.36,
            -2.87,
            -3.38,
            -3.9,
            -4.41,
            -4.92,
            -5.43,
            -5.94,
            -6.44,
            -6.97,
            -7.98,
            -8.99,
            -9.51,
            -10.51,
            -11.02,
            -11.52,
            -12.03,
            -12.53,
            -13.03,
            -13.54,
            -14.05,
            -14.56,
            -15.06,
            -15.57,
            -16.08,
            -16.58,
            -17.09,
            -17.61,
            -18.61,
            -19.12,
            -19.63,
            -20.14,
            -20.64,
            -21.15,
            -21.66,
            -22.17,
            -22.68,
            -23.2,
            -23.72,
            -24.23,
            -24.75,
            -25.25,
            -25.77,
            -26.29,
            -26.79,
            -27.31,
            -27.83,
            -28.36,
            -28.87,
            -29.39,
            -29.92,
            -30.45,
            -30.99,
            -31.5,
            -32.04,
            -32.56,
            -33.08,
            -33.6,
            -34.11,
            -34.64,
            -35.16,
            -35.68,
            -36.18,
            -36.71,
            -37.23,
            -37.74,
            -38.27,
            -38.77,
            -39.3,
            -39.8,
            -40.8,
            -41.35,
            -41.87,
            -42.38,
            -42.91,
            -43.42,
            -43.93,
            -44.47,
            -45.01,
            -45.52,
            -46.06,
            -46.59,
            -47.09,
            -47.64,
            -48.17,
            -48.7,
            -49.23,
            -49.77,
            -50.31,
            -50.84,
            -51.37,
            -51.89,
            -52.41,
            -52.93,
            -53.5,
            -54.04,
            -54.55,
            -55.05,
            -55.6,
            -56.11,
            -56.66,
            -57.18,
            -57.71,
            -58.24,
            -58.74,
            -59.29,
            -59.81,
            -60.85,
            -61.36,
            -61.88,
            -62.79,
            -63.65,
            -64.49,
            -65.3,
            -66.11,
            -66.99,
            -67.91,
            -68.85,
            -69.78,
            -70.69,
            -71.52,
            -72.24,
            -72.89,
            -73.56,
            -74.29,
            -74.95,
            -75.57,
            -76.23,
            -76.76,
            -77.36,
            -78.05,
            -78.71,
            -79.35,
            -79.87,
            -80.48,
            -81.24,
            -81.82,
            -84.61,
            -85.45,
            -86.31,
            -86.81,
            -87.4,
            -87.91,
            -88.09,
            -88.9,
            -88.83,
            -90.55,
            -89.78,
            -89.57,
            -89.32,
            -89.15,
            -89.14,
            -88.74,
            -88.4,
            -88.02,
            -87.62,
            -87.23,
            -86.86,
            -86.49,
            -86.14,
            -85.76,
            -85.4,
            -84.98,
            -84.63,
            -84.25,
            -83.88,
            -83.49,
            -83.11,
            -82.75,
            -82.34,
            -81.93,
            -81.52,
            -81.1,
            -80.69,
            -80.29,
            -79.9,
            -79.53,
            -79.14,
            -78.74,
            -78.35,
            -77.95,
            -77.56,
            -77.19,
            -76.82,
            -76.4,
            -76.0,
            -75.64,
            -75.26,
            -74.85,
            -74.48,
            -74.08,
            -73.65,
            -73.27,
            -72.9,
            -72.5,
            -72.12,
            -71.73,
            -71.34,
            -70.95,
            -70.56,
            -70.07,
            -69.56,
            -69.21,
            -68.86,
            -68.17,
            -67.85,
            -67.41,
            -66.92,
            -66.52,
            -66.2,
            -65.56,
            -65.27,
            -64.87,
            -64.49,
            -64.1,
            -63.71,
            -63.33,
            -62.91,
            -62.49,
            -62.09,
            -61.66,
            -61.2,
            -60.77,
            -60.32,
            -59.83,
            -59.34,
            -58.88,
            -58.4,
            -57.92,
            -57.42,
            -56.94,
            -56.44,
            -55.93,
            -54.94,
            -54.43,
            -53.91,
            -53.38,
            -52.88,
            -52.36,
            -51.83,
            -51.31,
            -50.78,
            -50.23,
            -49.69,
            -49.16,
            -48.6,
            -48.08,
            -47.54,
            -46.99,
            -46.45,
            -45.89,
            -45.35,
            -44.79,
            -44.23,
            -43.67,
            -43.13,
            -42.58,
            -42.01,
            -41.43,
            -40.89,
            -40.32,
            -39.75,
            -39.18,
            -38.63,
            -38.05,
            -37.51,
            -36.95,
            -36.35,
            -35.79,
            -35.24,
            -34.66,
            -34.1,
            -33.52,
            -32.95,
            -32.38,
            -31.81,
            -31.25,
            -30.68,
            -30.1,
            -29.53,
            -28.95,
            -28.39,
            -27.81,
            -27.23,
            -26.65,
            -26.09,
            -25.51,
            -24.93,
            -24.37,
            -23.78,
            -23.21,
            -22.63,
            -22.04,
            -21.48,
            -20.89,
            -20.33,
            -19.74,
            -19.17,
            -18.59,
            -18.01,
            -17.43,
            -16.85,
            -16.28,
            -15.69,
            -15.13,
            -14.55,
            -13.97,
            -13.4,
            -12.83,
            -12.24,
            -11.68,
            -11.1,
            -10.51,
            -9.96,
            -9.37,
            -8.81,
            -8.24,
            -7.66,
            -7.09,
            -6.52,
            -5.94,
            -5.38,
            -4.8,
            -4.25,
            -3.68,
            -3.11,
            -2.55,
            -1.97,
            -1.43,
            -0.85,
            -0.28,
            0.27,
            0.85,
            1.41,
            1.97,
            2.54,
            3.1,
            3.66,
            4.21,
            4.8,
            5.34,
            5.91,
            6.45,
            7.04,
            7.6,
            8.14,
            8.71,
            9.27,
            9.98,
            10.56,
            11.11,
            11.66,
            12.21,
            12.79,
            13.91,
            14.45,
            15.01,
            15.59,
            16.11,
            16.69,
            17.25,
            17.82,
            18.38,
            18.95,
            19.54,
            20.11,
            20.67,
            21.28,
            21.88,
            22.47,
            23.03,
            23.57,
            24.13,
            24.72,
            25.29,
            25.86,
            26.47,
            27.06,
            27.66,
            28.23,
            28.81,
            29.4,
            29.99,
            30.58,
            31.18,
            31.75,
            32.35,
            32.93,
            33.51,
            34.11,
            34.7,
            35.29,
            35.88,
            36.47,
            37.06,
            37.66,
            38.26,
            38.87,
            39.44,
            40.05,
            40.64,
            41.22,
            41.83,
            42.44,
            43.0,
            43.59,
            44.18,
            44.75,
            45.32,
            45.89,
            46.49,
            47.07,
            47.68,
            48.26,
            48.85,
            49.42,
            50.01,
            50.62,
            51.21,
            51.87,
            52.79,
            53.31,
            53.37,
            53.43,
            53.08,
            52.87,
            52.74
        ],
        "force": [
            1.506816,
            3.013632,
            4.143744,
            5.587776,
            7.157376,
            8.664192,
            10.10823,
            11.42669,
            12.93351,
            14.18919,
            15.696,
            17.70509,
            18.77241,
            20.27923,
            21.66048,
            22.72781,
            24.04627,
            25.42752,
            26.49484,
            28.00167,
            29.44569,
            30.95251,
            32.01984,
            33.58944,
            34.84512,
            36.28915,
            37.41927,
            39.36557,
            40.8096,
            42.12806,
            43.88601,
            45.33004,
            46.83686,
            48.15533,
            49.4738,
            50.91783,
            52.29907,
            53.55475,
            54.99878,
            56.5056,
            58.20076,
            59.51923,
            60.90048,
            62.53286,
            63.85133,
            65.10701,
            66.67661,
            68.18343,
            69.94137,
            71.13428,
            72.70387,
            74.21069,
            75.84308,
            76.9104,
            78.22887,
            79.73568,
            81.2425,
            82.49817,
            83.69107,
            85.19788,
            86.39078,
            87.96037,
            89.40442,
            90.78567,
            92.16691,
            93.48537,
            94.9922,
            96.37344,
            97.88025,
            99.26148,
            100.8311,
            102.0868,
            103.5936,
            104.9748,
            106.1678,
            107.3607,
            108.9931,
            110.2487,
            111.4416,
            112.8856,
            114.1413,
            115.8993,
            117.4689,
            118.9757,
            120.2314,
            121.487,
            122.9311,
            124.2495,
            126.0075,
            127.2631,
            128.77,
            130.2767,
            131.972,
            133.5415,
            134.7973,
            136.7436,
            138.2504,
            139.5689,
            141.0128,
            142.3313,
            143.7753,
            144.9682,
            146.6006,
            147.9819,
            149.3631,
            150.6816,
            152.5023,
            153.7581,
            155.0137,
            156.7088,
            158.0901,
            159.5342,
            161.041,
            162.1083,
            163.5523,
            164.7452,
            164.9335,
            165.3731,
            166.1893,
            166.8799,
            165.3103,
            164.2429,
            162.485,
            160.8527,
            159.1574,
            157.2112,
            155.9555,
            154.1975,
            152.9419,
            151.3722,
            150.0537,
            148.7353,
            147.0401,
            145.5333,
            144.0265,
            142.7081,
            141.264,
            139.5689,
            137.9992,
            136.8063,
            135.2995,
            133.7299,
            132.4743,
            130.7791,
            129.3978,
            127.9537,
            126.3842,
            124.7518,
            123.245,
            121.487,
            119.9802,
            118.2223,
            116.4643,
            114.8319,
            113.2624,
            111.5671,
            110.0603,
            108.1769,
            106.6701,
            105.1632,
            103.468,
            101.9612,
            100.58,
            98.75927,
            97.25246,
            95.7456,
            94.11321,
            92.6064,
            90.97402,
            89.40442,
            87.96037,
            86.39078,
            84.7584,
            83.56551,
            81.74477,
            80.23794,
            78.8567,
            77.22432,
            75.84308,
            74.33626,
            72.82944,
            71.57376,
            69.69024,
            68.62292,
            66.92774,
            65.86042,
            64.22803,
            62.53286,
            60.83769,
            59.70758,
            58.32633,
            56.81952,
            55.50105,
            54.11981,
            52.92691,
            51.54567,
            49.91328,
            48.53204,
            46.64851,
            45.07891,
            43.63488,
            42.12806,
            40.43289,
            38.92608,
            37.35648,
            35.72409,
            34.46842,
            32.89881,
            30.95251,
            28.81785,
            26.93433,
            25.1136,
            23.79513,
            22.35111,
            20.90707,
            19.08633,
            17.89344,
            16.38663,
            14.81703,
            13.56135,
            12.30567,
            10.61049,
            9.292032,
            7.471296,
            5.211072,
            3.892608,
            2.82528,
            1.444032,
            0.0,
            -48.48485,
            -96.9697,
            -148.6097,
            -149.8654,
            -151.1839,
            -152.8163,
            -154.3231,
            -155.5159,
            -157.2112,
            -158.2157,
            -159.7225,
            -161.2293,
            -162.5478,
            -163.6779,
            -165.1219,
            -166.5659,
            -168.1983,
            -169.5796,
            -170.7725,
            -171.2119,
            -169.3912,
            -169.8935,
            -170.6469,
            -171.6515,
            -172.2165,
            -173.0955,
            -172.9072,
            -172.0281,
            -171.5887,
            -171.2119,
            -170.6469,
            -170.1447,
            -169.7051,
            -169.3912,
            -167.6961,
            -166.5659,
            -165.6241,
            -164.2429,
            -162.9245,
            -161.4804,
            -160.162,
            -158.2785,
            -156.8972,
            -155.6415,
            -154.3231,
            -152.4396,
            -150.8699,
            -149.2375,
            -147.2285,
            -145.7844,
            -144.2149,
            -142.7708,
            -141.264,
            -140.1967,
            -138.3131,
            -137.1203,
            -135.2368,
            -133.9182,
            -132.2231,
            -131.093,
            -129.3978,
            -127.891,
            -126.5725,
            -125.1285,
            -123.81,
            -122.4915,
            -120.7964,
            -118.4734,
            -117.4689,
            -116.0877,
            -114.7692,
            -112.8229,
            -111.3788,
            -109.4325,
            -107.2351,
            -105.7283,
            -103.7819,
            -101.7101,
            -100.4544,
            -99.1359,
            -97.25246,
            -95.24332,
            -94.176,
            -92.66917,
            -91.41351,
            -90.09504,
            -88.39987,
            -86.89306,
            -85.19788,
            -83.06323,
            -81.9959,
            -80.61466,
            -78.8567,
            -77.22432,
            -75.40359,
            -73.70841,
            -72.45274,
            -70.88315,
            -69.06239,
            -67.30444,
            -65.98598,
            -64.54195,
            -62.97235,
            -61.65388,
            -59.95872,
            -58.32633,
            -57.13344,
            -55.6894,
            -53.93145,
            -52.67578,
            -50.79225,
            -49.41101,
            -47.71584,
            -46.02068,
            -44.76499,
            -43.00704,
            -41.12352,
            -39.49113,
            -37.60761,
            -35.97523,
            -34.15449,
            -32.20819,
            -30.38745,
            -28.75507,
            -27.49939,
            -25.80423,
            -24.54855,
            -22.72781,
            -20.90707,
            -19.71417,
            -18.01901,
            -16.70055,
            -14.87981,
            -13.18464,
            -11.61504,
            -9.857086,
            -8.413056,
            -6.90624,
            -5.211072,
            -3.892608,
            -2.385792,
            -1.004544,
            0.439488,
            2.009088,
            3.264768,
            4.583232,
            5.838912,
            7.53408,
            8.978112,
            9.919874,
            11.61504,
            13.31021,
            15.19373,
            16.57497,
            17.89344,
            18.89799,
            20.59315,
            21.78605,
            23.23008,
            24.79968,
            26.30649,
            28.31559,
            29.44569,
            31.20365,
            32.71047,
            34.46842,
            36.16359,
            37.79596,
            39.49113,
            41.43744,
            43.06983,
            44.89056,
            46.39737,
            48.78316,
            50.10163,
            52.1735,
            54.18259,
            55.87776,
            58.20076,
            59.77037,
            61.90503,
            63.85133,
            65.60928,
            67.99507,
            69.62745,
            71.44819,
            73.08057,
            75.08967,
            76.9104,
            78.22887,
            79.98681,
            81.93312,
            83.56551,
            85.38624,
            87.33254,
            89.65556,
            90.97402,
            93.0459,
            94.86662,
            96.5618,
            98.3197,
            100.2661,
            102.1495,
            103.7819,
            105.791,
            107.3607,
            109.2441,
            111.0021,
            112.6973,
            114.4553,
            115.4598,
            116.9666,
            118.8501,
            120.6081,
            122.3032,
            124.0612,
            125.7563,
            126.8865,
            128.6445,
            130.3396,
            131.5325,
            132.7253,
            134.3577,
            136.0529,
            137.7481,
            139.2549,
            140.5734,
            142.1429,
            143.7753,
            145.2822,
            146.6006,
            147.9191,
            149.4259,
            150.4933,
            152.5023,
            153.5696,
            155.202,
            156.2694,
            157.3995,
            158.2157,
            158.718,
            158.718,
            157.0227,
            157.3367,
            155.4532,
            156.4577,
            156.96,
            156.96,
            156.8972,
            156.7088,
            156.4577,
            156.2694,
            156.2694,
            155.8927,
            155.8299,
            156.0811,
            155.5159,
            155.8299,
            154.637,
            154.637,
            154.637,
            154.4487,
            154.1975,
            154.3858,
            153.8835,
            154.0091,
            154.4487,
            154.8881,
            154.5742,
            154.1347,
            154.1347,
            153.8835,
            153.5069,
            153.3185,
            153.1302,
            152.879,
            152.8163,
            152.4396,
            152.3767,
            151.6234,
            150.4933,
            151.5605,
            149.4259,
            146.8518,
            144.6544,
            142.3941,
            140.0083,
            137.5598,
            135.8646,
            133.2905,
            131.972,
            130.4652,
            129.0211,
            126.2586,
            123.81,
            121.4243,
            118.9757,
            117.8455,
            115.397,
            114.1413,
            111.3788,
            108.9931,
            107.8001,
            105.3516,
            103.9075,
            101.5217,
            99.07316,
            96.9385,
            94.42713,
            92.2297,
            91.09959,
            88.58823,
            86.20244,
            83.87943,
            81.68198,
            80.61466,
            78.41721,
            76.09421,
            73.95956,
            71.63654,
            69.69024,
            67.30444,
            65.35815,
            62.84679,
            60.83769,
            58.95417,
            57.00787,
            55.24992,
            53.11527,
            51.54567,
            49.4738,
            47.52748,
            45.64397,
            43.88601,
            42.31642,
            40.43289,
            38.92608,
            37.16813,
            35.28461,
            33.58944,
            31.83149,
            30.51303,
            28.56672,
            27.12269,
            25.61588,
            24.10905,
            22.53945,
            20.90707,
            19.21191,
            17.45395,
            15.94713,
            14.56589,
            13.05907,
            11.23833,
            9.668736,
            7.910784,
            6.215616,
            4.959936,
            3.076416,
            1.695168,
            0.251136,
            -1.444032,
            -2.762496,
            -4.269312,
            -6.215616,
            -7.973568,
            -9.668736,
            -11.36391,
            -13.37299,
            -15.25651,
            -17.14003,
            -18.64685,
            -20.59315,
            -22.28832,
            -24.10905,
            -25.86701,
            -27.37383,
            -29.25735,
            -30.76416,
            -32.27098,
            -33.71501,
            -35.28461,
            -36.79142,
            -37.98432,
            -39.6167,
            -40.87239,
            -42.3792,
            -43.50932,
            -44.70221,
            -46.20903,
            -47.27635,
            -48.78316,
            -50.47833,
            -52.42464,
            -53.68032,
            -55.43827,
            -56.5056,
            -58.26355,
            -59.51923,
            -61.2144,
            -62.97235,
            -64.3536,
            -65.86042,
            -67.30444,
            -69.18797,
            -70.50642,
            -72.2016,
            -74.1479,
            -75.40359,
            -76.78483,
            -78.8567,
            -80.36352,
            -81.68198,
            -83.1888,
            -84.57005,
            -86.20244,
            -87.8976,
            -89.27885,
            -90.91122,
            -92.29248,
            -94.176,
            -95.62002,
            -97.18962,
            -98.94759,
            -100.58,
            -102.3379,
            -103.6563,
            -105.1632,
            -107.549,
            -109.2441,
            -110.5626,
            -112.2577,
            -114.0157,
            -116.1504,
            -117.7828,
            -118.9757,
            -120.6708,
            -122.1149,
            -123.81,
            -125.1285,
            -126.6981,
            -128.2049,
            -129.3978,
            -130.9046,
            -132.2859,
            -133.5415,
            -135.6762,
            -137.6853,
            -139.3805,
            -141.0757,
            -142.7081,
            -144.0265,
            -145.7844,
            -147.3541,
            -148.8609,
            -150.3677,
            -151.8745,
            -153.5069,
            -154.5742,
            -155.7043,
            -157.2112,
            -157.9645,
            -159.1574,
            -160.162,
            -160.6642,
            -161.2293,
            -161.9199,
            -162.1711,
            -162.485,
            -162.2966,
            -162.1711,
            -161.9199,
            -161.8572,
            -161.5433,
            -161.5433,
            -161.1037,
            -160.9781,
            -160.6015,
            -160.0365,
            -159.7225,
            -159.283,
            -158.718,
            -158.4668,
            -157.4623,
            -157.3367,
            -156.96,
            -156.0811,
            -155.4532,
            -155.0765,
            -154.4487,
            -154.1347,
            -153.5696,
            -152.879,
            -152.4396,
            -152.0001,
            -151.1839,
            -150.8699,
            -150.2421,
            -149.4259,
            -149.0492,
            -148.1703,
            -147.5424,
            -147.3541,
            -146.6635,
            -146.1612,
            -145.5961,
            -144.7799,
            -144.2149,
            -143.4614,
            -142.8336,
            -142.3313,
            -141.7663,
            -141.3267,
            -140.385,
            -139.7572,
            -138.941,
            -138.5015,
            -137.9992,
            -136.9947,
            -136.5553,
            -136.0529,
            -135.4879,
            -135.1739,
            -134.4206,
            -133.9182,
            -133.3532,
            -132.6626,
            -131.972,
            -131.4069,
            -130.9046,
            -129.9001,
            -129.0211,
            -127.7027,
            -128.77,
            -128.6445,
            -127.4515,
            -127.2631,
            -125.8192,
            -124.4379,
            -122.7427,
            -121.0476,
            -119.164,
            -116.9666,
            -115.7109,
            -114.3297,
            -112.8229,
            -111.1905,
            -109.8093,
            -108.3024,
            -107.2978,
            -105.3516,
            -103.6563,
            -101.9612,
            -100.2661,
            -98.3197,
            -96.9385,
            -95.18054,
            -93.73651,
            -91.97856,
            -90.5973,
            -89.21606,
            -87.58368,
            -86.45357,
            -84.88396,
            -83.37715,
            -81.87034,
            -80.42631,
            -79.35898,
            -77.66382,
            -75.90587,
            -73.7712,
            -71.8249,
            -70.75757,
            -68.56013,
            -66.61382,
            -64.54195,
            -62.84679,
            -61.08883,
            -59.14252,
            -57.57293,
            -56.56839,
            -54.55929,
            -52.92691,
            -51.10617,
            -49.22265,
            -46.83686,
            -45.07891,
            -43.00704,
            -40.8096,
            -38.98887,
            -36.79142,
            -34.97068,
            -32.9616,
            -31.14087,
            -30.07353,
            -28.19001,
            -26.62041,
            -24.79968,
            -23.04173,
            -21.72327,
            -19.96531,
            -18.45849,
            -16.57497,
            -14.87981,
            -13.37299,
            -11.61504,
            -10.29657,
            -8.413056,
            -7.031808,
            -5.587776,
            -4.08096,
            -2.762496,
            -1.067328,
            0.690624,
            2.134656,
            3.829824,
            5.211072,
            6.717888,
            7.785216,
            9.4176,
            10.79885,
            12.11731,
            14.18919,
            15.31929,
            16.57497,
            18.08179,
            20.15367,
            21.47213,
            22.53945,
            24.04627,
            25.30195,
            26.49484,
            28.12723,
            29.06899,
            30.70137,
            31.89427,
            33.77779,
            34.90791,
            36.54029,
            37.85875,
            39.17721,
            40.62125,
            41.68857,
            43.06983,
            44.13715,
            45.58119,
            46.64851,
            47.90419,
            49.03431,
            50.03885,
            50.91783,
            52.23629,
            53.17804,
            54.11981,
            55.24992,
            56.31725,
            57.19622,
            58.32633,
            59.39367,
            60.20986,
            61.27719,
            62.28172,
            63.41184,
            64.29081,
            65.60928,
            66.42547,
            67.68115,
            68.74848,
            69.62745,
            71.13428,
            72.2016,
            73.26892,
            74.77575,
            76.09421,
            77.16153,
            78.48,
            80.23794,
            81.43085,
            83.00046,
            84.7584,
            86.26523,
            88.52544,
            90.34617,
            92.04134,
            93.79929,
            95.68281,
            97.25246,
            99.38705,
            101.0823,
            102.8401,
            104.7237,
            106.4816,
            108.5535,
            110.2487,
            112.3833,
            113.7647,
            115.6481,
            117.3433,
            118.9129,
            120.6708,
            122.3661,
            123.81,
            125.1285,
            126.6981,
            128.2049,
            129.649,
            131.2185,
            132.9138,
            134.1694,
            135.2368,
            136.1785,
            137.4342,
            138.062,
            139.1921,
            139.7572,
            140.4478,
            141.3267,
            141.9546,
            142.8336,
            143.2103,
            143.8382,
            144.0893,
            144.7171,
            145.1566,
            145.345,
            145.8473,
            145.8473,
            146.4751,
            146.7889,
            146.4123,
            146.4751,
            146.2867,
            146.2239,
            146.2239,
            146.2239,
            145.5961,
            146.2239,
            145.9729,
            146.0356,
            146.2239,
            144.7171,
            144.5288,
            144.7799,
            143.4614,
            141.4523,
            136.9319,
            134.2321,
            131.4069,
            128.3933,
            125.568,
            123.0567,
            120.4825,
            117.6572,
            115.0203,
            112.195,
            109.4953,
            107.0467,
            104.5354,
            101.7729,
            99.32432,
            96.9385,
            94.23878,
            91.41351,
            89.09049,
            86.57914,
            84.25613,
            81.43085,
            79.10784,
            76.5337,
            74.21069,
            71.57376,
            68.99962,
            66.23712,
            63.47463,
            61.2144,
            58.64025,
            55.94055,
            53.30361,
            50.98061,
            48.78316,
            46.2718,
            43.82323,
            41.50023,
            39.36557,
            37.35648,
            35.22183,
            32.9616,
            30.95251,
            28.75507,
            27.05991,
            24.73689,
            22.97895,
            21.66048,
            20.21645,
            18.45849,
            17.14003,
            15.50765,
            14.00083,
            12.68237,
            10.92441,
            8.601408,
            7.282944,
            5.96448,
            3.390336,
            1.946304,
            0.690624,
            -1.695168,
            -3.264768,
            -4.771584,
            -6.090048,
            -7.596864,
            -9.292032,
            -11.17555,
            -12.74515,
            -14.00083,
            -15.75879,
            -17.39117,
            -19.14912,
            -20.71872,
            -22.53945,
            -24.04627,
            -25.61588,
            -27.31104,
            -28.88064,
            -32.08263,
            -33.40108,
            -34.90791,
            -37.23091,
            -38.67495,
            -39.9934,
            -42.31642,
            -44.76499,
            -47.15078,
            -48.59481,
            -49.66214,
            -52.11072,
            -54.37095,
            -56.56839,
            -58.51469,
            -60.83769,
            -62.784,
            -64.73031,
            -66.92774,
            -68.81126,
            -70.82036,
            -72.95502,
            -75.08967,
            -76.97318,
            -78.98228,
            -81.30528,
            -83.62829,
            -85.9513,
            -88.21152,
            -90.47175,
            -92.73196,
            -95.05497,
            -96.31067,
            -98.6337,
            -100.6427,
            -102.5263,
            -104.2842,
            -106.1678,
            -107.8001,
            -109.6837,
            -111.5671,
            -112.9485,
            -114.6436,
            -116.0877,
            -117.6572,
            -118.9757,
            -120.6081,
            -121.8638,
            -122.8055,
            -124.3123,
            -125.1913,
            -126.4469,
            -127.2631,
            -128.2049,
            -129.0839,
            -129.8373,
            -130.7791,
            -131.4069,
            -132.0975,
            -132.7253,
            -133.1649,
            -133.3532,
            -134.3577,
            -134.4206,
            -134.7973,
            -134.9856,
            -135.4251,
            -135.6135,
            -135.8646,
            -135.8646,
            -135.9274,
            -135.9274,
            -135.9274,
            -136.0529,
            -135.6762,
            -135.6762,
            -135.4879,
            -135.4251,
            -135.0483,
            -134.6089,
            -134.4206,
            -133.9182,
            -133.6671,
            -133.1649,
            -132.7253,
            -132.0347,
            -131.7837,
            -131.3441,
            -130.7163,
            -130.2767,
            -129.5861,
            -129.3978,
            -128.5816,
            -128.1422,
            -127.7027,
            -126.8237,
            -126.3842,
            -125.7563,
            -124.3123,
            -122.9938,
            -121.9265,
            -123.3706,
            -124.6891,
            -124.5006,
            -123.81,
            -123.6217,
            -122.1149,
            -122.8055,
            -122.7427,
            -122.5544,
            -121.8638,
            -121.9265,
            -119.7919,
            -118.2223,
            -116.0877,
            -114.0157,
            -112.0067,
            -110.3115,
            -108.4279,
            -106.6701,
            -104.9748,
            -103.4053,
            -101.4589,
            -99.1359,
            -97.25246,
            -95.30611,
            -93.35982,
            -90.97402,
            -88.83936,
            -86.64192,
            -84.57005,
            -82.56096,
            -80.61466,
            -78.54279,
            -76.9104,
            -75.21522,
            -73.33171,
            -71.32262,
            -69.50188,
            -67.9323,
            -66.04877,
            -64.3536,
            -62.59566,
            -60.90048,
            -59.26809,
            -57.63571,
            -55.75219,
            -54.11981,
            -52.42464,
            -50.66669,
            -48.84595,
            -46.71129,
            -44.76499,
            -42.81868,
            -40.99796,
            -38.98887,
            -37.16813,
            -35.22183,
            -33.52665,
            -31.64313,
            -30.13632,
            -28.37837,
            -26.80877,
            -25.30195,
            -23.66957,
            -22.28832,
            -20.59315,
            -19.14912,
            -17.57952,
            -15.94713,
            -14.44032,
            -13.05907,
            -11.42669,
            -10.17101,
            -8.413056,
            -6.90624,
            -5.65056,
            -4.332096,
            -2.51136,
            -0.251136,
            1.5696,
            4.08096,
            5.211072,
            6.717888,
            7.785216,
            9.040896,
            11.17555,
            13.49856,
            14.69145,
            15.94713,
            17.2656,
            18.27015,
            19.52583,
            20.90707,
            22.09997,
            23.23008,
            24.29741,
            25.61588,
            26.93433,
            28.31559,
            30.51303,
            31.7687,
            34.21728,
            36.16359,
            37.41927,
            38.4866,
            39.55392,
            40.43289,
            41.43744,
            42.3792,
            43.44653,
            44.3255,
            44.89056,
            45.95789,
            46.83686,
            47.59027,
            48.53204,
            49.22265,
            49.91328,
            50.91783,
            51.54567,
            52.11072,
            52.86412,
            53.68032,
            54.55929,
            55.18714,
            55.62663,
            56.38004,
            57.00787,
            57.6985,
            58.26355,
            58.76583,
            59.51923,
            60.3982,
            60.83769,
            61.46553,
            62.15616,
            62.84679,
            63.47463,
            64.22803,
            64.66752,
            65.29536,
            66.04877,
            66.86496,
            67.36723,
            67.99507,
            68.62292,
            69.50188,
            70.12973,
            70.75757,
            71.57376,
            72.26437,
            72.95502,
            73.70841,
            74.39904,
            75.21522,
            76.09421,
            76.9104,
            77.60101,
            78.29164,
            79.17062,
            80.23794,
            81.05415,
            81.74477,
            82.56096,
            83.62829,
            84.57005,
            85.51181,
            86.26523,
            87.33254,
            88.21152,
            89.65556,
            90.47175,
            91.22516,
            92.48083,
            93.67372,
            95.68281,
            96.75014,
            97.8175,
            98.94759,
            100.2032,
            101.2706,
            103.4053,
            105.6027,
            107.7373,
            108.9931,
            110.8765,
            112.6973,
            113.8901,
            115.8365,
            116.5271,
            118.5361,
            119.5407,
            120.3569,
            121.0476,
            122.1149,
            123.0567,
            123.81,
            124.4379,
            125.1913,
            126.2586,
            126.8865,
            127.5771,
            128.2049,
            129.0839,
            129.7117,
            130.4652,
            130.9046,
            131.5325,
            132.2231,
            132.6626,
            133.0393,
            133.3532,
            134.1067,
            134.6089,
            134.9856,
            135.2368,
            135.739,
            135.8646,
            136.6807,
            136.7436,
            137.183,
            137.3713,
            137.8737,
            137.8737,
            138.2504,
            138.4387,
            138.6271,
            138.6898,
            138.941,
            139.2549,
            139.2549,
            139.3805,
            139.5689,
            139.7572,
            139.5689,
            139.5689,
            139.7572,
            139.9455,
            140.0083,
            139.8199,
            140.0083,
            139.8199,
            139.3177,
            138.5015,
            139.5689,
            138.6898,
            135.8646,
            131.972,
            128.5816,
            125.0657,
            121.7382,
            118.2223,
            114.5808,
            111.3788,
            107.9885,
            104.5354,
            101.3333,
            97.88025,
            94.80383,
            91.60186,
            88.3371,
            85.07232,
            81.87034,
            78.98228,
            75.90587,
            72.82944,
            69.69024,
            66.67661,
            63.91412,
            61.2144,
            58.32633,
            55.62663,
            53.11527,
            50.72947,
            47.96697,
            45.58119,
            43.00704,
            40.8096,
            38.4866,
            36.16359,
            33.71501,
            31.45478,
            27.12269,
            25.17639,
            23.23008,
            21.34656,
            19.96531,
            18.64685,
            16.95168,
            15.19373,
            13.74969,
            12.30567,
            10.61049,
            9.103681,
            6.717888,
            5.211072,
            3.641472,
            1.5696,
            0.251136,
            -1.695168,
            -3.076416,
            -4.018176,
            -6.466752,
            -9.229248,
            -11.42669,
            -14.25197,
            -16.07271,
            -17.83065,
            -19.40025,
            -21.03264,
            -22.53945,
            -24.29741,
            -26.05536,
            -27.81331,
            -29.38291,
            -30.88973,
            -32.39655,
            -34.02893,
            -35.53575,
            -36.91699,
            -38.10989,
            -39.74227,
            -42.19085,
            -43.50932,
            -46.20903,
            -47.46471,
            -49.91328,
            -52.42464,
            -54.81043,
            -57.00787,
            -59.39367,
            -61.46553,
            -63.66298,
            -65.54651,
            -67.55557,
            -69.50188,
            -71.32262,
            -73.52007,
            -75.21522,
            -77.22432,
            -78.91949,
            -80.99136,
            -82.74931,
            -84.7584,
            -86.89306,
            -88.58823,
            -89.8439,
            -91.79021,
            -93.73651,
            -95.93394,
            -97.88025,
            -100.1405,
            -101.9612,
            -103.2169,
            -105.2887,
            -107.1095,
            -108.9931,
            -110.8765,
            -112.3833,
            -114.3924,
            -115.8365,
            -117.4689,
            -119.164,
            -120.4197,
            -120.9847,
            -122.4915,
            -122.8055,
            -124.2495,
            -124.5635,
            -125.3168,
            -125.6307,
            -126.3842,
            -126.8865,
            -127.1376,
            -127.326,
            -127.9537,
            -128.5189,
            -128.9583,
            -129.2095,
            -129.4607,
            -130.0257,
            -130.3396,
            -130.5907,
            -130.7791,
            -130.9675,
            -131.4069,
            -131.7837,
            -131.5952,
            -131.7837,
            -132.0975,
            -132.6626,
            -132.4743,
            -132.4743,
            -133.1021,
            -132.9138,
            -133.1649,
            -133.1021,
            -133.2905,
            -133.5415,
            -133.5415,
            -133.4788,
            -133.3532,
            -133.3532,
            -133.4788,
            -133.6671,
            -133.4788,
            -133.2905,
            -133.1649,
            -133.3532,
            -133.1649,
            -133.1021,
            -133.1021,
            -133.0393,
            -132.8509,
            -132.7253,
            -132.2231,
            -132.4114,
            -132.2859,
            -131.8464,
            -131.8464,
            -131.3441,
            -131.4069,
            -131.5325,
            -131.3441,
            -130.5907,
            -130.4652,
            -130.4652,
            -130.2767,
            -129.8373,
            -129.4607,
            -129.2095,
            -128.9583,
            -128.77,
            -128.3933,
            -127.891,
            -127.5143,
            -127.4515,
            -126.6981,
            -126.8865,
            -126.1959,
            -125.8192,
            -125.003,
            -124.5006,
            -123.9984,
            -123.245,
            -121.2987,
            -121.487,
            -121.4243,
            -120.043,
            -120.1685,
            -118.4734,
            -116.276,
            -113.7018,
            -111.3788,
            -109.1814,
            -106.7955,
            -104.4725,
            -102.0868,
            -99.9521,
            -97.69193,
            -95.49447,
            -93.29701,
            -91.09959,
            -88.96493,
            -86.89306,
            -84.7584,
            -82.62373,
            -80.61466,
            -78.54279,
            -76.40813,
            -74.33626,
            -72.38995,
            -70.31808,
            -68.43456,
            -66.67661,
            -64.79309,
            -63.03513,
            -61.52832,
            -59.77037,
            -58.0752,
            -56.38004,
            -54.55929,
            -52.92691,
            -51.10617,
            -49.28544,
            -47.27635,
            -45.5184,
            -43.88601,
            -41.93972,
            -40.18176,
            -38.42381,
            -36.60308,
            -35.03347,
            -33.40108,
            -31.58035,
            -29.69683,
            -28.19001,
            -26.62041,
            -25.1136,
            -23.48121,
            -22.09997,
            -20.65593,
            -19.08633,
            -17.57952,
            -15.75879,
            -14.37753,
            -13.18464,
            -11.67783,
            -10.17101,
            -8.978112,
            -7.094592,
            -4.897152,
            -3.45312,
            -1.88352,
            -0.502272,
            1.506816,
            2.950848,
            5.33664,
            7.596864,
            8.664192,
            10.10823,
            11.11277,
            12.49401,
            14.00083,
            15.25651,
            16.19827,
            17.39117,
            18.52128,
            20.15367,
            21.34656,
            22.41389,
            23.66957,
            24.98803,
            26.24371,
            27.49939,
            28.62951,
            29.88519,
            31.32921,
            33.40108,
            34.40563,
            35.47296,
            36.72864,
            37.79596,
            38.4866,
            39.49113,
            40.43289,
            41.43744,
            42.19085,
            42.81868,
            43.82323,
            44.57664,
            45.5184,
            46.39737,
            46.89965,
            47.71584,
            48.59481,
            49.28544,
            49.91328,
            50.60391,
            51.54567,
            52.04793,
            52.67578,
            53.17804,
            53.93145,
            54.87322,
            55.50105,
            55.87776,
            56.56839,
            57.19622,
            58.01241,
            58.64025,
            59.33088,
            59.70758,
            60.46099,
            61.27719,
            61.71667,
            62.34451,
            63.16071,
            63.66298,
            64.47916,
            64.98144,
            65.54651,
            66.42547,
            66.92774,
            67.68115,
            68.30899,
            68.87405,
            69.8158,
            70.50642,
            71.13428,
            71.76211,
            72.45274,
            73.14336,
            74.1479,
            74.65017,
            75.46637,
            76.28256,
            77.16153,
            77.97774,
            78.66835,
            79.54733,
            80.36352,
            81.2425,
            82.3726,
            82.8121,
            83.87943,
            84.7584,
            85.76295,
            86.57914,
            87.33254,
            88.52544,
            89.27885,
            90.28339,
            91.35072,
            92.10413,
            93.17146,
            93.98765,
            95.05497,
            95.93394,
            96.81293,
            97.88025,
            99.9521,
            100.7056,
            101.7729,
            102.7147,
            103.6563,
            104.5354,
            105.3516,
            106.2305,
            107.2978,
            108.3024,
            108.8675,
            109.8093,
            110.6882,
            111.5671,
            112.2577,
            113.0739,
            113.7018,
            114.4553,
            115.397,
            115.8993,
            116.7783,
            117.3433,
            118.2223,
            118.9129,
            119.9802,
            120.6081,
            120.9847,
            121.7382,
            122.1776,
            122.8055,
            123.3706,
            123.8729,
            124.4379,
            124.5635,
            124.9401,
            125.3797,
            126.0703,
            126.0703,
            126.5098,
            127.0121,
            127.4515,
            127.7027,
            127.891,
            128.1422,
            128.3933,
            128.8328,
            128.6445,
            129.2095,
            129.0211,
            129.4607,
            129.649,
            129.8373,
            129.7117,
            130.0257,
            130.0257,
            130.0884,
            130.1513,
            129.9001,
            129.8373,
            130.0257,
            130.2767,
            130.0257,
            129.649,
            128.5189,
            127.5143,
            127.0748,
            123.9984,
            120.2314,
            116.9039,
            113.3251,
            109.872,
            106.6701,
            103.468,
            99.9521,
            96.37344,
            93.29701,
            89.90668,
            86.64192,
            83.1888,
            79.98681,
            76.9104,
            73.7712,
            70.56922,
            67.36723,
            64.47916,
            61.33997,
            58.51469,
            55.43827,
            52.48743,
            49.66214,
            47.088,
            44.51385,
            41.68857,
            39.11444,
            34.65677,
            32.08263,
            29.69683,
            27.37383,
            25.30195,
            23.04173,
            20.84429,
            18.70963,
            16.82611,
            15.06816,
            13.74969,
            12.18009,
            10.35936,
            8.852544,
            7.157376,
            5.587776,
            4.018176,
            1.946304,
            -0.376704,
            -1.946304,
            -3.892608,
            -5.02272,
            -7.345728,
            -8.978112,
            -10.61049,
            -12.24288,
            -14.81703,
            -16.19827,
            -17.64231,
            -19.08633,
            -21.66048,
            -23.16729,
            -24.67411,
            -26.05536,
            -28.44115,
            -31.01529,
            -32.27098,
            -34.84512,
            -37.16813,
            -39.36557,
            -40.62125,
            -43.00704,
            -44.89056,
            -47.27635,
            -49.09709,
            -51.54567,
            -53.61753,
            -55.62663,
            -57.57293,
            -59.20531,
            -61.33997,
            -63.16071,
            -64.91865,
            -66.42547,
            -68.12064,
            -69.8158,
            -71.19706,
            -72.95502,
            -74.1479,
            -75.84308,
            -77.41267,
            -78.73113,
            -80.23794,
            -81.55642,
            -83.1888,
            -84.50726,
            -85.9513,
            -87.52089,
            -88.96493,
            -90.72288,
            -92.04134,
            -93.54816,
            -95.05497,
            -96.9385,
            -98.19414,
            -99.57547,
            -101.2706,
            -102.7774,
            -104.347,
            -105.6027,
            -106.8584,
            -108.3024,
            -109.6208,
            -110.8138,
            -112.0067,
            -113.5135,
            -114.3924,
            -115.6481,
            -116.5899,
            -117.5945,
            -118.7246,
            -119.4152,
            -120.2314,
            -121.0476,
            -121.8638,
            -122.6171,
            -123.1823,
            -123.6845,
            -124.2495,
            -124.9401,
            -125.5053,
            -125.7563,
            -126.0703,
            -126.4469,
            -126.8865,
            -127.1376,
            -127.2631,
            -127.4515,
            -127.4515,
            -127.5771,
            -127.5771,
            -127.7654,
            -127.5771,
            -127.891,
            -127.7027,
            -127.5143,
            -127.0748,
            -127.4515,
            -127.326,
            -127.2631,
            -127.0121,
            -127.0121,
            -126.6353,
            -126.4469,
            -126.0703,
            -126.0075,
            -126.1959,
            -125.6307,
            -125.5053,
            -125.0657,
            -125.1285,
            -124.6891,
            -124.5635,
            -124.1239,
            -123.8729,
            -123.81,
            -123.4333,
            -123.0567,
            -122.9311,
            -122.7427,
            -122.3032,
            -121.7382,
            -121.7382,
            -121.2987,
            -121.0476,
            -120.6081,
            -120.4197,
            -119.9802,
            -119.5407,
            -119.164,
            -118.8501,
            -118.4107,
            -117.4689,
            -117.4061,
            -115.9621,
            -115.2715,
            -115.2715,
            -114.7692,
            -112.3833,
            -110.1232,
            -107.549,
            -105.1632,
            -103.0286,
            -100.8939,
            -98.50813,
            -96.31067,
            -94.176,
            -91.85299,
            -90.03225,
            -87.58368,
            -85.57458,
            -83.25159,
            -81.49364,
            -79.35898,
            -77.16153,
            -75.21522,
            -73.14336,
            -71.44819,
            -69.25076,
            -67.11609,
            -65.54651,
            -63.78854,
            -62.15616,
            -60.58656,
            -58.70304,
            -57.13344,
            -55.43827,
            -53.80589,
            -51.98516,
            -50.10163,
            -48.40647,
            -46.58573,
            -44.95335,
            -42.94425,
            -41.12352,
            -39.49113,
            -37.79596,
            -35.97523,
            -34.15449,
            -32.39655,
            -30.70137,
            -29.19456,
            -27.31104,
            -25.61588,
            -24.10905,
            -22.60224,
            -21.22099,
            -19.40025,
            -17.89344,
            -16.70055,
            -15.19373,
            -13.68691,
            -12.18009,
            -10.73607,
            -9.480384,
            -8.224704,
            -7.157376,
            -5.65056,
            -4.269312,
            -2.82528,
            -1.5696,
            -0.251136,
            1.130112,
            2.51136,
            4.520448,
            6.717888,
            7.910784,
            9.229248,
            10.48493,
            11.80339,
            13.12185,
            14.18919,
            15.50765,
            16.70055,
            18.96077,
            20.27923,
            21.66048,
            23.04173,
            25.55309,
            26.80877,
            28.19001,
            29.50848,
            30.57581,
            31.7687,
            32.9616,
            34.21728,
            35.41017,
            37.16813,
            38.29824,
            39.36557,
            40.37011,
            41.06073,
            42.12806,
            43.06983,
            44.26272,
            45.07891,
            45.76953,
            46.64851,
            47.46471,
            48.40647,
            49.09709,
            49.66214,
            50.60391,
            51.35732,
            52.11072,
            52.48743,
            53.3664,
            54.24537,
            54.87322,
            55.62663,
            56.12889,
            56.75673,
            57.6985,
            58.32633,
            58.76583,
            59.39367,
            60.0215,
            60.90048,
            61.46553,
            61.96781,
            62.59566,
            63.41184,
            64.03967,
            64.66752,
            65.29536,
            65.73485,
            66.42547,
            67.24165,
            67.68115,
            68.30899,
            68.99962,
            69.62745,
            70.38087,
            70.88315,
            71.57376,
            72.2016,
            72.95502,
            73.58285,
            74.21069,
            74.90131,
            75.71751,
            76.5337,
            77.03596,
            77.78938,
            78.48,
            79.35898,
            80.0496,
            80.61466,
            81.30528,
            82.30982,
            83.06323,
            84.005,
            84.57005,
            85.32345,
            86.39078,
            87.8976,
            88.77657,
            90.03225,
            90.91122,
            91.79021,
            92.48083,
            93.54816,
            94.36436,
            95.11776,
            96.05952,
            96.75014,
            97.69193,
            98.50813,
            99.32432,
            99.9521,
            100.7056,
            101.7729,
            102.5891,
            103.2797,
            104.0959,
            104.7865,
            105.7283,
            106.4816,
            107.1095,
            107.7373,
            108.5535,
            109.307,
            110.2487,
            110.6882,
            111.3161,
            112.0067,
            112.6973,
            113.1368,
            113.8274,
            114.4553,
            115.2086,
            115.8365,
            116.1504,
            116.5899,
            117.1549,
            117.9084,
            118.4734,
            118.9129,
            119.3523,
            119.9175,
            120.3569,
            120.7964,
            120.922,
            121.4243,
            121.9893,
            122.3032,
            122.5544,
            122.8055,
            123.1823,
            123.4961,
            123.81,
            123.9984,
            124.1239,
            124.2495,
            124.6891,
            124.8774,
            124.8774,
            125.1913,
            125.5053,
            125.6307,
            125.7563,
            125.5053,
            125.8192,
            125.9447,
            126.0075,
            125.8192,
            125.7563,
            125.9447,
            126.0703,
            125.9447,
            126.0075,
            125.9447,
            125.9447,
            126.0075,
            125.8192,
            125.7563,
            125.7563,
            125.6307,
            125.568,
            125.3168,
            125.1913,
            125.003,
            125.1913,
            124.8774,
            124.8774,
            124.6891,
            124.5635,
            124.5006,
            124.3123,
            124.2495,
            124.0612,
            123.8729,
            123.8729,
            123.4961,
            123.3706,
            123.1823,
            122.9938,
            122.5544,
            122.3032,
            122.1776,
            122.1149,
            121.9893,
            121.7382,
            121.487,
            121.4243,
            121.2987,
            121.0476,
            120.7964,
            120.6081,
            120.3569,
            120.043,
            119.7919,
            119.4152,
            117.9084,
            116.9039,
            117.5945,
            115.7109,
            112.6973,
            110.1232,
            106.7955,
            103.4053,
            100.1405,
            96.9385,
            93.29701,
            89.90668,
            86.45357,
            83.25159,
            79.92403,
            76.59648,
            73.26892,
            69.87859,
            66.86496,
            63.78854,
            60.64935,
            57.38458,
            54.37095,
            51.35732,
            48.53204,
            45.5184,
            42.56755,
            39.80506,
            37.16813,
            34.15449,
            31.64313,
            29.06899,
            26.80877,
            24.3602,
            21.78605,
            19.58861,
            17.45395,
            15.88435,
            14.00083,
            12.18009,
            10.35936,
            8.78976,
            7.094592,
            5.33664,
            4.018176,
            1.757952,
            0.251136,
            -1.946304,
            -3.390336,
            -4.7088,
            -6.717888,
            -8.852544,
            -10.9872,
            -12.68237,
            -14.25197,
            -15.94713,
            -17.83065,
            -19.58861,
            -21.28377,
            -22.79059,
            -24.54855,
            -26.43207,
            -28.00167,
            -26.18093,
            -29.19456,
            -31.45478,
            -33.27552,
            -34.84512,
            -36.41472,
            -37.92153,
            -39.55392,
            -41.12352,
            -42.56755,
            -44.07437,
            -45.39283,
            -47.02521,
            -48.53204,
            -51.10617,
            -52.42464,
            -53.99424,
            -55.50105,
            -57.88684,
            -60.64935,
            -63.03513,
            -65.60928,
            -67.74393,
            -69.8158,
            -71.76211,
            -73.52007,
            -75.52914,
            -76.157,
            -76.78483,
            -77.66382,
            -78.48,
            -79.17062,
            -79.73568,
            -80.61466,
            -81.05415,
            -81.93312,
            -82.56096,
            -83.1888,
            -83.50272,
            -84.13056,
            -84.7584,
            -85.32345,
            -85.9513,
            -86.39078,
            -86.89306,
            -87.45811,
            -87.77203,
            -88.14874,
            -88.651,
            -89.27885,
            -89.46719,
            -90.09504,
            -90.53453,
            -90.78567,
            -91.22516,
            -91.85299,
            -91.97856,
            -92.29248,
            -92.85754,
            -93.29701,
            -93.79929,
            -93.92487,
            -94.23878,
            -94.86662,
            -95.05497,
            -95.62002,
            -95.87117,
            -96.18509,
            -96.75014,
            -97.12688,
            -97.56635,
            -97.8175,
            -98.69643,
            -99.1359,
            -99.57547,
            -99.82652,
            -100.2661,
            -100.8311,
            -101.2706,
            -101.5217,
            -102.0868,
            -102.5263,
            -102.9657,
            -103.468,
            -103.7192,
            -104.347,
            -104.7865,
            -105.226,
            -105.6027,
            -106.1678,
            -106.7955,
            -107.2351,
            -107.8001,
            -108.1769,
            -108.7419,
            -109.1814,
            -110.3115,
            -111.5671,
            -112.195,
            -113.0739,
            -113.5762,
            -114.3297,
            -114.8319,
            -115.2715,
            -115.7109,
            -116.276,
            -116.9666,
            -117.3433,
            -117.9084,
            -118.2223,
            -118.6617,
            -119.2896,
            -119.7919,
            -120.1685,
            -120.922,
            -121.487,
            -121.8638,
            -122.1776,
            -122.5544,
            -122.8055,
            -123.3706,
            -123.4333,
            -123.6845,
            -124.1239,
            -124.5006,
            -124.8774,
            -125.1285,
            -125.3168,
            -125.8192,
            -126.0075,
            -126.1959,
            -126.3842,
            -126.4469,
            -127.0121,
            -127.326,
            -127.326,
            -127.326,
            -127.5143,
            -127.7654,
            -127.891,
            -128.0166,
            -127.9537,
            -127.9537,
            -128.1422,
            -128.2049,
            -128.0166,
            -128.3305,
            -128.3305,
            -128.5189,
            -128.5189,
            -128.3305,
            -128.2049,
            -128.0166,
            -128.2049,
            -128.0166,
            -128.1422,
            -128.1422,
            -128.0166,
            -127.7654,
            -127.7654,
            -127.7654,
            -127.7027,
            -127.5771,
            -127.4515,
            -127.0748,
            -127.1376,
            -127.0748,
            -126.6981,
            -126.4469,
            -126.3842,
            -126.1959,
            -126.0075,
            -125.6307,
            -125.3168,
            -125.1913,
            -125.003,
            -124.8774,
            -124.5635,
            -124.1239,
            -123.9984,
            -123.8729,
            -123.6217,
            -123.245,
            -122.9938,
            -122.8055,
            -122.4915,
            -121.9265,
            -121.487,
            -121.2987,
            -121.2987,
            -120.6708,
            -120.4197,
            -119.9175,
            -119.6035,
            -119.2896,
            -118.8501,
            -118.2851,
            -117.4689,
            -116.9039,
            -116.4016,
            -115.8365,
            -115.6481,
            -114.7692,
            -114.3297,
            -113.5135,
            -112.8229,
            -112.2577,
            -111.3788,
            -110.7509,
            -109.9347,
            -109.4953,
            -108.8675,
            -108.1769,
            -107.6746,
            -106.7955,
            -106.4189,
            -105.5399,
            -104.9748,
            -104.2842,
            -103.5936,
            -102.9657,
            -102.2124,
            -101.7729,
            -101.2079,
            -100.6427,
            -99.9521,
            -99.19874,
            -98.6337,
            -98.50813,
            -97.37794,
            -96.5618,
            -94.80383,
            -94.61549,
            -94.67828,
            -95.18054,
            -93.54816,
            -92.29248,
            -92.48083,
            -89.59277,
            -87.52089,
            -85.32345,
            -83.25159,
            -81.2425,
            -79.2962,
            -77.34988,
            -75.27802,
            -73.26892,
            -71.38541,
            -69.50188,
            -67.55557,
            -65.60928,
            -63.72577,
            -62.15616,
            -60.20986,
            -58.51469,
            -56.81952,
            -55.43827,
            -53.93145,
            -52.48743,
            -50.98061,
            -49.22265,
            -47.71584,
            -45.83232,
            -44.13715,
            -42.12806,
            -40.24455,
            -38.54937,
            -36.79142,
            -35.03347,
            -32.9616,
            -31.45478,
            -29.94797,
            -28.12723,
            -26.43207,
            -24.67411,
            -22.85337,
            -21.53491,
            -19.96531,
            -18.27015,
            -16.57497,
            -15.19373,
            -13.74969,
            -12.24288,
            -10.79885,
            -9.480384,
            -8.224704,
            -6.215616,
            -4.457664,
            -2.636928,
            -1.130112,
            1.506816,
            2.82528,
            4.018176,
            6.403968,
            7.910784,
            9.4176,
            12.43123,
            13.81248,
            15.31929,
            16.70055,
            17.64231,
            18.77241,
            20.02809,
            21.28377,
            22.53945,
            23.60679,
            24.54855,
            25.74144,
            27.12269,
            28.19001,
            29.63405,
            30.76416,
            32.27098,
            33.58944,
            34.84512,
            36.28915,
            37.48204,
            38.86329,
            40.18176,
            42.3792,
            43.44653,
            44.70221,
            45.95789,
            46.89965,
            47.96697,
            49.03431,
            50.10163,
            50.91783,
            51.85959,
            52.73856,
            53.74311,
            54.68486,
            55.50105,
            56.19168,
            57.00787,
            58.01241,
            58.95417,
            59.39367,
            60.20986,
            61.02605,
            61.77945,
            62.40729,
            63.16071,
            63.78854,
            64.47916,
            65.29536,
            65.79764,
            66.2999,
            66.92774,
            67.68115,
            68.37177,
            68.62292,
            69.18797,
            69.8158,
            70.50642,
            70.88315,
            71.44819,
            71.88768,
            72.51552,
            72.89221,
            73.26892,
            73.7712,
            74.33626,
            75.02688,
            75.46637,
            75.65472,
            76.157,
            76.40813,
            77.16153,
            77.60101,
            77.78938,
            78.22887,
            78.54279,
            79.2962,
            79.54733,
            79.73568,
            80.0496,
            80.48909,
            80.8658,
            81.11693,
            81.55642,
            82.12147,
            82.49817,
            82.8121,
            83.06323,
            83.43993,
            83.69107,
            84.25613,
            84.44447,
            84.69561,
            85.00953,
            85.57458,
            85.9513,
            86.01408,
            86.45357,
            86.83027,
            87.26976,
            87.58368,
            87.77203,
            87.77203,
            88.39987,
            88.77657,
            89.02771,
            89.27885,
            89.46719,
            89.8439,
            90.34617,
            90.47175,
            90.72288,
            91.16237,
            91.53908,
            91.66464,
            91.85299,
            92.29248,
            92.48083,
            93.0459,
            93.29701,
            93.35982,
            93.73651,
            94.176,
            94.61549,
            94.80383,
            94.86662,
            95.24332,
            95.7456,
            96.05952,
            96.49901,
            96.49901,
            96.81293,
            97.37794,
            97.62909,
            97.8175,
            98.19414,
            98.50813,
            95.93394,
            96.37344,
            96.81293,
            97.25246,
            97.62909,
            98.06866,
            98.69643,
            99.07316,
            99.38705,
            99.76379,
            99.82652,
            100.1405,
            100.58,
            100.8311,
            101.0823,
            101.0194,
            101.3333,
            101.7101,
            101.8985,
            101.8985,
            100.8939,
            101.0823,
            101.0823,
            101.5217,
            101.4589,
            101.6473,
            101.6473,
            101.9612,
            102.0868,
            102.2124,
            102.1495,
            102.2124,
            102.4007,
            102.5263,
            102.4007,
            102.3379,
            102.4007,
            102.4007,
            102.5891,
            102.3379,
            102.4007,
            102.2124,
            102.3379,
            102.0868,
            102.1495,
            102.2124,
            102.0868,
            101.7729,
            101.8985,
            101.6473,
            101.7729,
            101.6473,
            101.4589,
            100.8939,
            100.6427,
            101.0194,
            100.6427,
            100.2661,
            100.3917,
            100.1405,
            99.82652,
            99.82652,
            99.32432,
            98.88485,
            98.88485,
            98.44528,
            98.19414,
            97.62909,
            97.12688,
            96.68736,
            96.68736,
            96.5618,
            95.43168,
            93.73651,
            92.48083,
            91.97856,
            89.27885,
            87.52089,
            -0.753408
        ]
    }
}