{
    "Name": "Galeota et al. 1996, CA2",
    "Type": "Rectangular",
    "fpc": 80.0,
    "fyt": 430.0,
    "fsut": 0.0,
    "fyl": 430.0,
    "fsul": 0.0,
    "Width": 250.0,
    "Depth": 250.0,
    "L_Inflection": 1140.0,
    "L_Measured": 1140.0,
    "TestConfiguration": "Double Ended",
    "AxLoad": 1500.0,
    "P_Delta": "Shear provided",
    "dlb": 10.0,
    "dlb_c": 10.0,
    "nlb": 12.0,
    "cc_per": 30.0,
    "nib_per": 2.0,
    "cc_par": 30.0,
    "nib_par": 2.0,
    "SubType": "RI: Rectangular and interlocking ties",
    "nsl": 4.0,
    "dtb_rcs": 8.0,
    "s_rcs": 50.0,
    "FailureType": "Flexure",
    "data": {
        "disp": [
            0.04,
            0.09,
            0.19,
            0.24,
            0.32,
            0.41,
            0.52,
            0.64,
            0.7,
            0.82,
            0.9,
            0.97,
            1.07,
            1.16,
            1.25,
            1.32,
            1.41,
            1.49,
            1.55,
            1.66,
            1.76,
            1.83,
            1.9,
            1.99,
            2.11,
            2.21,
            2.32,
            2.37,
            2.49,
            2.57,
            2.67,
            2.73,
            2.82,
            2.93,
            3.04,
            3.1,
            3.18,
            3.28,
            3.38,
            3.45,
            3.55,
            3.64,
            3.74,
            3.83,
            3.96,
            4.08,
            4.2,
            4.35,
            4.48,
            4.58,
            4.69,
            4.84,
            4.97,
            5.11,
            5.23,
            5.38,
            5.56,
            5.71,
            5.87,
            6.04,
            6.12,
            6.3,
            6.5,
            6.69,
            6.88,
            7.05,
            7.27,
            7.69,
            7.92,
            8.13,
            8.36,
            8.58,
            8.86,
            9.07,
            9.38,
            9.62,
            9.9,
            10.2,
            10.5,
            10.84,
            11.2,
            11.51,
            11.8,
            12.13,
            12.45,
            12.97,
            13.25,
            13.35,
            13.39,
            13.31,
            13.19,
            13.09,
            12.88,
            12.71,
            12.58,
            12.38,
            12.17,
            12.09,
            11.83,
            11.74,
            11.58,
            11.38,
            11.16,
            11.0,
            10.9,
            10.65,
            10.52,
            10.38,
            10.21,
            10.02,
            9.82,
            9.65,
            9.52,
            9.4,
            9.2,
            9.0,
            8.8,
            8.63,
            8.44,
            8.27,
            8.1,
            7.89,
            7.63,
            7.46,
            7.25,
            7.07,
            6.96,
            6.76,
            6.62,
            6.42,
            6.26,
            6.16,
            5.99,
            5.81,
            5.65,
            5.53,
            5.38,
            5.27,
            5.11,
            4.96,
            4.78,
            4.69,
            4.6,
            4.43,
            4.31,
            4.16,
            4.05,
            3.94,
            3.82,
            3.68,
            3.58,
            3.44,
            3.33,
            3.25,
            3.11,
            2.99,
            2.84,
            2.71,
            2.61,
            2.53,
            2.41,
            2.28,
            2.14,
            2.07,
            1.95,
            1.85,
            1.73,
            1.63,
            1.57,
            1.46,
            1.37,
            1.25,
            1.14,
            1.0,
            0.9,
            0.75,
            0.59,
            0.46,
            0.3,
            0.19,
            0.06,
            -0.05,
            -0.18,
            -0.3,
            -0.4,
            -0.53,
            -0.68,
            -0.79,
            -0.89,
            -1.03,
            -1.14,
            -1.27,
            -1.39,
            -1.52,
            -1.65,
            -1.78,
            -1.91,
            -2.03,
            -2.16,
            -2.29,
            -2.5,
            -2.69,
            -2.83,
            -2.97,
            -3.08,
            -3.22,
            -3.36,
            -3.51,
            -3.64,
            -3.78,
            -3.91,
            -4.05,
            -4.2,
            -4.33,
            -4.54,
            -4.68,
            -4.84,
            -5.04,
            -5.22,
            -5.36,
            -5.55,
            -5.72,
            -5.86,
            -6.37,
            -6.53,
            -6.75,
            -6.94,
            -7.18,
            -7.34,
            -7.6,
            -7.84,
            -8.07,
            -8.34,
            -8.58,
            -8.87,
            -9.06,
            -9.36,
            -9.63,
            -9.93,
            -10.24,
            -10.53,
            -10.9,
            -11.2,
            -11.58,
            -11.88,
            -12.25,
            -12.71,
            -13.08,
            -13.54,
            -14.01,
            -14.45,
            -14.98,
            -15.52,
            -16.07,
            -16.65,
            -17.86,
            -18.08,
            -18.22,
            -18.35,
            -18.37,
            -18.22,
            -18.03,
            -17.83,
            -17.6,
            -17.43,
            -17.27,
            -17.02,
            -16.89,
            -16.66,
            -16.46,
            -16.29,
            -16.09,
            -15.87,
            -15.65,
            -15.45,
            -15.22,
            -15.01,
            -14.78,
            -14.6,
            -14.4,
            -14.16,
            -13.95,
            -13.72,
            -13.51,
            -13.3,
            -13.08,
            -12.87,
            -12.65,
            -12.46,
            -12.27,
            -12.07,
            -11.83,
            -11.62,
            -11.4,
            -11.2,
            -10.95,
            -10.74,
            -10.51,
            -10.39,
            -10.14,
            -9.94,
            -9.72,
            -9.54,
            -9.37,
            -9.17,
            -8.93,
            -8.73,
            -8.52,
            -8.24,
            -8.05,
            -7.83,
            -7.64,
            -7.45,
            -7.21,
            -7.03,
            -6.81,
            -6.58,
            -6.38,
            -6.17,
            -5.98,
            -5.77,
            -5.56,
            -5.32,
            -5.11,
            -4.93,
            -4.69,
            -4.55,
            -4.43,
            -4.28,
            -4.13,
            -3.96,
            -3.82,
            -3.73,
            -3.56,
            -3.45,
            -3.3,
            -3.15,
            -3.02,
            -2.85,
            -2.68,
            -2.58,
            -2.47,
            -2.37,
            -2.23,
            -2.14,
            -1.99,
            -1.88,
            -1.73,
            -1.59,
            -1.47,
            -1.34,
            -1.25,
            -1.1,
            -0.99,
            -0.83,
            -0.7,
            -0.56,
            -0.44,
            -0.31,
            -0.2,
            -0.04,
            0.08,
            0.21,
            0.33,
            0.48,
            0.59,
            0.72,
            0.87,
            1.05,
            1.17,
            1.33,
            1.49,
            1.61,
            1.78,
            1.97,
            2.09,
            2.23,
            2.37,
            2.53,
            2.69,
            2.83,
            3.02,
            3.16,
            3.34,
            3.49,
            3.62,
            3.81,
            4.01,
            4.14,
            4.29,
            4.43,
            4.62,
            4.83,
            4.99,
            5.19,
            5.39,
            5.59,
            5.76,
            5.98,
            6.16,
            6.37,
            6.56,
            6.77,
            6.95,
            7.17,
            7.41,
            7.61,
            7.88,
            8.13,
            8.38,
            8.66,
            8.95,
            9.22,
            9.53,
            9.86,
            10.16,
            10.53,
            10.91,
            11.28,
            11.66,
            12.1,
            12.62,
            13.13,
            13.58,
            14.1,
            14.71,
            15.21,
            15.72,
            16.27,
            16.8,
            17.32,
            17.87,
            18.42,
            18.99,
            19.51,
            20.02,
            20.54,
            21.07,
            21.62,
            22.13,
            22.64,
            23.19,
            23.74,
            24.28,
            24.83,
            25.36,
            25.92,
            26.49,
            27.03,
            27.59,
            28.14,
            28.64,
            29.2,
            29.73,
            30.05,
            30.1,
            29.97,
            29.79,
            29.58,
            29.52,
            29.43,
            29.33,
            29.14,
            28.94,
            28.79,
            28.55,
            28.33,
            28.12,
            27.89,
            27.64,
            27.39,
            27.22,
            26.96,
            26.77,
            26.5,
            26.2,
            25.98,
            25.68,
            25.41,
            25.16,
            24.88,
            24.65,
            24.35,
            24.1,
            23.83,
            23.64,
            23.4,
            23.12,
            22.85,
            22.59,
            22.33,
            22.06,
            21.8,
            21.51,
            21.28,
            21.0,
            20.75,
            20.44,
            20.23,
            19.96,
            19.7,
            19.43,
            19.15,
            18.84,
            18.56,
            18.31,
            18.08,
            17.7,
            17.21,
            16.71,
            16.43,
            16.09,
            15.79,
            15.44,
            15.04,
            14.76,
            14.4,
            14.04,
            13.66,
            13.26,
            12.89,
            12.48,
            11.92,
            11.48,
            10.96,
            10.57,
            10.06,
            9.63,
            9.23,
            8.78,
            8.32,
            7.87,
            7.32,
            6.8,
            6.26,
            5.89,
            5.51,
            5.17,
            4.91,
            4.5,
            4.17,
            3.79,
            3.49,
            3.13,
            2.92,
            2.62,
            2.39,
            2.11,
            1.83,
            1.6,
            1.32,
            1.15,
            0.88,
            0.61,
            0.34,
            0.12,
            -0.14,
            -0.32,
            -0.58,
            -0.79,
            -1.08,
            -1.24,
            -1.49,
            -1.7,
            -1.93,
            -2.19,
            -2.43,
            -2.7,
            -2.93,
            -3.15,
            -3.38,
            -3.64,
            -3.88,
            -4.06,
            -4.33,
            -4.57,
            -4.8,
            -5.04,
            -5.34,
            -5.59,
            -5.83,
            -6.1,
            -6.35,
            -6.63,
            -6.93,
            -7.2,
            -7.48,
            -7.81,
            -8.12,
            -8.48,
            -8.78,
            -9.12,
            -9.45,
            -9.83,
            -10.19,
            -10.57,
            -11.02,
            -11.47,
            -11.93,
            -12.37,
            -12.93,
            -13.36,
            -13.87,
            -14.49,
            -14.94,
            -15.34,
            -15.92,
            -16.42,
            -16.95,
            -17.49,
            -18.0,
            -18.54,
            -19.04,
            -19.58,
            -20.1,
            -20.64,
            -21.05,
            -21.55,
            -22.11,
            -22.66,
            -23.18,
            -23.6,
            -24.11,
            -24.64,
            -25.21,
            -25.79,
            -26.33,
            -26.89,
            -27.42,
            -27.68,
            -28.24,
            -28.77,
            -29.31,
            -30.03,
            -30.53,
            -31.09,
            -31.64,
            -32.22,
            -32.78,
            -33.3,
            -33.85,
            -34.1,
            -34.61,
            -35.17,
            -35.88,
            -36.4,
            -36.94,
            -37.48,
            -37.68,
            -38.26,
            -38.58,
            -38.62,
            -38.49,
            -38.25,
            -37.96,
            -37.68,
            -37.42,
            -37.13,
            -36.88,
            -36.6,
            -36.34,
            -36.06,
            -35.81,
            -35.49,
            -35.23,
            -34.95,
            -34.66,
            -34.39,
            -34.09,
            -33.83,
            -33.54,
            -33.26,
            -32.99,
            -32.68,
            -32.39,
            -31.95,
            -31.68,
            -31.42,
            -31.13,
            -30.84,
            -30.54,
            -30.08,
            -29.64,
            -29.21,
            -28.75,
            -28.27,
            -27.81,
            -27.34,
            -26.89,
            -26.44,
            -25.98,
            -25.5,
            -25.03,
            -24.54,
            -24.09,
            -23.67,
            -23.19,
            -22.77,
            -22.3,
            -21.84,
            -21.36,
            -20.91,
            -20.47,
            -20.01,
            -19.53,
            -19.09,
            -18.57,
            -18.18,
            -17.68,
            -17.24,
            -16.79,
            -16.35,
            -15.74,
            -15.27,
            -14.71,
            -14.2,
            -13.69,
            -13.37,
            -12.83,
            -12.32,
            -11.81,
            -11.18,
            -10.52,
            -9.88,
            -9.37,
            -8.74,
            -8.11,
            -7.51,
            -7.08,
            -6.47,
            -6.02,
            -5.59,
            -5.1,
            -4.67,
            -4.19,
            -3.69,
            -3.36,
            -2.91,
            -2.42,
            -1.93,
            -1.62,
            -1.29,
            -0.8,
            -0.32,
            0.02,
            0.35,
            0.82,
            1.33,
            1.64,
            2.13,
            2.46,
            2.95,
            3.27,
            3.75,
            4.1,
            4.59,
            5.07,
            5.59,
            6.08,
            6.59,
            7.1,
            7.6,
            8.1,
            8.65,
            9.31,
            9.85,
            10.38,
            10.93,
            11.44,
            11.97,
            12.51,
            13.08,
            13.61,
            14.14,
            14.69,
            15.27,
            15.82,
            16.39,
            16.96,
            17.5,
            18.08,
            18.65,
            19.22,
            19.78,
            20.35,
            20.95,
            21.53,
            22.13,
            22.7,
            23.33,
            23.94,
            24.53,
            25.14,
            25.76,
            26.39,
            27.01,
            27.34,
            27.39,
            27.21,
            27.09,
            26.85,
            26.66,
            26.43,
            26.21,
            25.99,
            25.79,
            25.58,
            25.32,
            25.1,
            24.86,
            24.66,
            24.44,
            24.22,
            23.98,
            23.77,
            23.42,
            23.07,
            22.86,
            22.66,
            22.31,
            21.97,
            21.63,
            21.32,
            20.95,
            20.71,
            20.55,
            20.29,
            19.97,
            19.75,
            19.38,
            19.04,
            18.72,
            18.35,
            18.06,
            17.7,
            17.38,
            17.16,
            16.84,
            16.48,
            16.16,
            15.84,
            15.5,
            15.18,
            14.89,
            14.57,
            14.26,
            13.93,
            13.66,
            13.37,
            13.1,
            12.73,
            12.36,
            11.98,
            11.65,
            11.28,
            10.87,
            10.39,
            9.96,
            9.57,
            9.09,
            8.74,
            8.25,
            7.9,
            7.49,
            7.07,
            6.64,
            6.21,
            5.65,
            5.24,
            4.82,
            4.39,
            3.97,
            3.7,
            3.38,
            3.07,
            2.65,
            2.35,
            2.05,
            1.73,
            1.46,
            1.01,
            0.59,
            0.28,
            -0.15,
            -0.58,
            -0.99,
            -1.42,
            -1.72,
            -2.17,
            -2.59,
            -2.92,
            -3.23,
            -3.67,
            -3.99,
            -4.38,
            -4.72,
            -5.17,
            -5.62,
            -5.94,
            -6.39,
            -6.82,
            -7.31,
            -7.71,
            -8.21,
            -8.62,
            -9.23,
            -9.71,
            -10.27,
            -10.89,
            -11.31,
            -11.82,
            -12.42,
            -13.01,
            -13.64,
            -14.27,
            -14.89,
            -15.53,
            -16.05,
            -16.56,
            -17.19,
            -17.82,
            -18.34,
            -18.86,
            -19.38,
            -19.89,
            -20.4,
            -20.95,
            -21.48,
            -22.02,
            -22.55,
            -23.1,
            -23.66,
            -24.21,
            -24.71,
            -25.29,
            -25.81,
            -26.38,
            -26.96,
            -27.52,
            -28.08,
            -28.62,
            -29.26,
            -29.84,
            -30.41,
            -30.99,
            -31.58,
            -32.18,
            -32.76,
            -33.35,
            -33.94,
            -34.54,
            -35.09,
            -35.71,
            -36.28,
            -36.86,
            -37.37,
            -37.48,
            -37.5,
            -37.36,
            -37.12,
            -36.86,
            -36.6,
            -36.32,
            -36.07,
            -35.8,
            -35.57,
            -35.29,
            -35.03,
            -34.77,
            -34.48,
            -34.2,
            -33.95,
            -33.69,
            -33.4,
            -33.14,
            -32.85,
            -32.59,
            -32.32,
            -32.06,
            -31.79,
            -31.52,
            -31.23,
            -30.96,
            -30.7,
            -30.41,
            -30.15,
            -29.87,
            -29.62,
            -29.33,
            -28.97,
            -28.58,
            -28.2,
            -27.79,
            -27.4,
            -26.99,
            -26.62,
            -26.21,
            -25.72,
            -25.33,
            -24.93,
            -24.42,
            -24.04,
            -23.51,
            -23.0,
            -22.54,
            -22.15,
            -21.75,
            -21.37,
            -20.88,
            -20.48,
            -20.1,
            -19.72,
            -19.33,
            -18.83,
            -18.46,
            -17.96,
            -17.63,
            -17.15,
            -16.77,
            -16.29,
            -15.81,
            -15.22,
            -14.74,
            -14.23,
            -14.0,
            -13.5,
            -13.06,
            -12.59,
            -12.1,
            -11.57,
            -11.07,
            -10.47,
            -9.99,
            -9.4,
            -8.82,
            -8.31,
            -7.81,
            -7.28,
            -6.75,
            -6.22,
            -5.68,
            -5.17,
            -4.62,
            -4.19,
            -3.66,
            -3.1,
            -2.67,
            -2.27,
            -1.82,
            -1.37,
            -0.94,
            -0.51,
            -0.07,
            0.35,
            0.78,
            1.21,
            1.64,
            2.19,
            2.5,
            2.96,
            3.38,
            3.83,
            4.26,
            4.7,
            5.14,
            5.68,
            6.13,
            6.68,
            7.24,
            7.77,
            8.22,
            8.66,
            9.22,
            9.72,
            10.16,
            10.61,
            11.17,
            11.76,
            12.36,
            12.93,
            13.53,
            14.03,
            14.6,
            15.2,
            15.78,
            16.29,
            16.89,
            17.39,
            17.97,
            18.48,
            19.09,
            19.69,
            20.2,
            20.79,
            21.32,
            21.82,
            22.32,
            22.82,
            23.33,
            23.86,
            24.48,
            25.0,
            25.51,
            26.05,
            26.58,
            27.06,
            27.0,
            26.81,
            26.62,
            26.4,
            26.16,
            25.92,
            25.7,
            25.47,
            25.23,
            25.03,
            24.81,
            24.53,
            24.24,
            24.01,
            23.72,
            23.45,
            23.18,
            22.94,
            22.68,
            22.39,
            22.12,
            21.88,
            21.62,
            21.36,
            21.11,
            20.83,
            20.56,
            20.32,
            20.04,
            19.8,
            19.53,
            19.27,
            19.0,
            18.72,
            18.47,
            18.2,
            17.96,
            17.69,
            17.44,
            17.18,
            16.92,
            16.66,
            16.28,
            16.01,
            15.77,
            15.38,
            15.01,
            14.64,
            14.34,
            14.0,
            13.68,
            13.31,
            13.0,
            12.71,
            12.4,
            12.09,
            11.74,
            11.43,
            10.98,
            10.51,
            10.09,
            9.52,
            9.08,
            8.68,
            8.24,
            7.8,
            7.43,
            7.06,
            6.53,
            6.16,
            5.67,
            5.28,
            4.92,
            4.56,
            4.2,
            3.69,
            3.34,
            2.97,
            2.6,
            2.23,
            1.86,
            1.48,
            1.1,
            0.72,
            0.36,
            -0.17,
            -0.71,
            -1.09,
            -1.61,
            -2.02,
            -2.42,
            -2.79,
            -3.32,
            -3.75,
            -4.13,
            -4.53,
            -5.05,
            -5.58,
            -6.11,
            -6.65,
            -7.22,
            -7.72,
            -8.26,
            -8.82,
            -9.38,
            -9.93,
            -10.5,
            -11.03,
            -11.61,
            -12.17,
            -12.77,
            -13.35,
            -13.92,
            -14.5,
            -15.1,
            -15.7,
            -16.3,
            -16.91,
            -17.47,
            -18.12,
            -18.69,
            -19.32,
            -19.94,
            -20.55,
            -21.17,
            -21.79,
            -22.43,
            -23.04,
            -23.69,
            -24.32,
            -24.95,
            -25.46,
            -26.07,
            -26.57,
            -27.2,
            -27.7,
            -28.2,
            -28.85,
            -29.36,
            -30.0,
            -30.66,
            -31.18,
            -31.83,
            -32.35,
            -32.87,
            -33.5,
            -34.01,
            -34.53,
            -35.04,
            -35.72,
            -36.26,
            -36.59,
            -36.67,
            -36.64,
            -36.45,
            -36.26,
            -36.05,
            -35.86,
            -35.62,
            -35.39,
            -35.07,
            -34.85,
            -34.57,
            -34.34,
            -34.01,
            -33.68,
            -33.34,
            -33.01,
            -32.67,
            -32.35,
            -31.99,
            -31.68,
            -31.35,
            -31.0,
            -30.81,
            -30.47,
            -30.1,
            -29.82,
            -29.6,
            -29.23,
            -28.89,
            -28.57,
            -28.22,
            -27.85,
            -27.49,
            -27.11,
            -26.76,
            -26.24,
            -25.91,
            -25.55,
            -25.03,
            -24.55,
            -24.22,
            -23.71,
            -23.22,
            -22.73,
            -22.26,
            -21.9,
            -21.53,
            -21.07,
            -20.72,
            -20.39,
            -19.93,
            -19.59,
            -19.15,
            -18.63,
            -18.21,
            -17.76,
            -17.43,
            -16.94,
            -16.47,
            -16.02,
            -15.58,
            -15.06,
            -14.57,
            -14.25,
            -13.71,
            -13.19,
            -12.83,
            -12.36,
            -11.9,
            -11.41,
            -10.93,
            -10.46,
            -9.99,
            -9.39,
            -8.83,
            -8.21,
            -7.68,
            -7.33,
            -6.86,
            -6.26,
            -5.87,
            -5.38,
            -4.83,
            -4.44,
            -4.03,
            -3.49,
            -3.08,
            -2.68,
            -2.11,
            -1.73,
            -1.31,
            -0.95,
            -0.37,
            0.03,
            0.56,
            1.12,
            1.49,
            1.87,
            2.27,
            2.82,
            3.23,
            3.64,
            4.2,
            4.58,
            5.0,
            5.55,
            5.93,
            6.35,
            6.92,
            7.33,
            7.86,
            8.46,
            8.86,
            9.37,
            9.99,
            10.5,
            11.12,
            11.66,
            12.26,
            12.81,
            13.4,
            13.95,
            14.53,
            15.15,
            15.71,
            16.34,
            16.9,
            17.51,
            18.09,
            18.66,
            19.28,
            19.88,
            20.39,
            20.94,
            21.53,
            22.03,
            22.6,
            23.29,
            23.87,
            24.45,
            24.99,
            25.59,
            26.21,
            26.81,
            26.88,
            26.82,
            26.56,
            26.39,
            26.19,
            26.0,
            25.82,
            25.64,
            25.43,
            25.22,
            25.02,
            24.73,
            24.44,
            24.18,
            23.86,
            23.55,
            23.26,
            22.97,
            22.77,
            22.58,
            22.28,
            22.0,
            21.68,
            21.37,
            21.09,
            20.77,
            20.49,
            20.18,
            19.86,
            19.58,
            19.3,
            18.98,
            18.69,
            18.38,
            18.11,
            17.81,
            17.51,
            17.23,
            16.93,
            16.64,
            16.32,
            16.07,
            15.77,
            15.49,
            15.21,
            14.95,
            14.65,
            14.32,
            14.01,
            13.65,
            13.39,
            12.98,
            12.63,
            12.28,
            12.0,
            11.68,
            11.25,
            10.8,
            10.4,
            9.9,
            9.46,
            9.02,
            8.6,
            8.17,
            7.7,
            7.33,
            6.84,
            6.46,
            5.97,
            5.57,
            5.23,
            4.83,
            4.36,
            4.0,
            3.62,
            3.25,
            2.86,
            2.48,
            2.09,
            1.72,
            1.33,
            0.96,
            0.54,
            0.17,
            -0.22,
            -0.61,
            -1.11,
            -1.62,
            -2.02,
            -2.53,
            -3.07,
            -3.54,
            -3.97,
            -4.49,
            -5.01,
            -5.5,
            -6.04,
            -6.55,
            -7.07,
            -7.59,
            -8.12,
            -8.64,
            -9.18,
            -9.7,
            -10.25,
            -10.8,
            -11.32,
            -11.9,
            -12.43,
            -12.98,
            -13.56,
            -14.12,
            -14.67,
            -15.23,
            -15.8,
            -16.37,
            -16.93,
            -17.52,
            -18.08,
            -18.65,
            -19.22,
            -19.84,
            -20.4,
            -20.96,
            -21.56,
            -22.16,
            -22.74,
            -23.34,
            -23.93,
            -24.51,
            -25.11,
            -25.73,
            -26.32,
            -26.82,
            -27.42,
            -28.05,
            -28.65,
            -29.15,
            -29.77,
            -30.37,
            -30.87,
            -31.39,
            -31.91,
            -32.41,
            -32.91,
            -33.41,
            -33.95,
            -34.46,
            -34.98,
            -35.53,
            -35.93,
            -36.04,
            -36.03,
            -35.75,
            -35.58,
            -35.32,
            -35.04,
            -34.87,
            -34.59,
            -34.31,
            -34.15,
            -33.87,
            -33.58,
            -33.31,
            -33.03,
            -32.74,
            -32.46,
            -32.2,
            -31.91,
            -31.61,
            -31.35,
            -31.07,
            -30.78,
            -30.5,
            -30.25,
            -29.96,
            -29.57,
            -29.29,
            -28.99,
            -28.71,
            -28.44,
            -28.08,
            -27.67,
            -27.26,
            -26.87,
            -26.43,
            -26.04,
            -25.62,
            -25.19,
            -24.87,
            -24.41,
            -23.96,
            -23.56,
            -23.16,
            -22.75,
            -22.32,
            -21.89,
            -21.53,
            -21.12,
            -20.73,
            -20.34,
            -19.95,
            -19.55,
            -19.16,
            -18.78,
            -18.39,
            -18.0,
            -17.62,
            -17.18,
            -16.8,
            -16.36,
            -15.87,
            -15.4,
            -14.96,
            -14.62,
            -14.12,
            -13.75,
            -13.4,
            -12.95,
            -12.54,
            -12.07,
            -11.53,
            -11.15,
            -10.62,
            -10.09,
            -9.59,
            -9.04,
            -8.51,
            -7.94,
            -7.43,
            -6.76,
            -6.48,
            -5.99,
            -5.49,
            -4.99,
            -4.53,
            -4.03,
            -3.55,
            -2.98,
            -2.55,
            -2.1,
            -1.52,
            -0.99,
            -0.5,
            0.01,
            0.34,
            0.82,
            1.33,
            1.65,
            2.0,
            2.52,
            2.87,
            3.35,
            3.87,
            4.34,
            4.79,
            5.3,
            5.68,
            6.15,
            6.66,
            7.15,
            7.66,
            8.13,
            8.62,
            9.17,
            9.62,
            10.17,
            10.62,
            11.12,
            11.66,
            12.12,
            12.71,
            13.17,
            13.72,
            14.24,
            14.88,
            15.38,
            15.91,
            16.43,
            16.95,
            17.66,
            18.16,
            18.73,
            19.35,
            19.93,
            20.5,
            21.09,
            21.62,
            22.19,
            22.83,
            23.42,
            23.94,
            24.48,
            25.06,
            25.59,
            26.17,
            26.75,
            27.29,
            27.87,
            28.45,
            29.02,
            29.59,
            30.21,
            30.78,
            31.36,
            31.94,
            32.34,
            32.88,
            33.5,
            34.07,
            34.57,
            35.13,
            35.63,
            36.19,
            36.7,
            37.27,
            37.62,
            38.2,
            38.7,
            39.27,
            39.74,
            40.31,
            40.84,
            41.38,
            41.91,
            42.48,
            43.02,
            43.57,
            44.08,
            44.33,
            44.49,
            44.48,
            44.29,
            44.11,
            43.92,
            43.61,
            43.44,
            43.12,
            42.92,
            42.61,
            42.32,
            42.01,
            41.7,
            41.39,
            41.07,
            40.76,
            40.48,
            40.19,
            39.86,
            39.54,
            39.26,
            38.97,
            38.66,
            38.35,
            38.07,
            37.77,
            37.37,
            37.08,
            36.79,
            36.52,
            36.16,
            35.89,
            35.55,
            35.19,
            34.91,
            34.54,
            34.18,
            33.85,
            33.45,
            33.09,
            32.7,
            32.27,
            31.88,
            31.44,
            31.01,
            30.53,
            29.95,
            29.5,
            29.0,
            28.38,
            27.8,
            27.27,
            26.73,
            26.19,
            25.62,
            25.09,
            24.56,
            24.04,
            23.51,
            22.97,
            22.42,
            21.87,
            21.33,
            20.78,
            20.22,
            19.63,
            19.06,
            18.48,
            17.88,
            17.31,
            16.81,
            16.19,
            15.59,
            15.08,
            14.56,
            13.95,
            13.33,
            12.83,
            12.33,
            11.82,
            11.22,
            10.6,
            9.99,
            9.49,
            8.9,
            8.27,
            7.67,
            7.08,
            6.58,
            5.97,
            5.38,
            4.79,
            4.19,
            3.62,
            3.0,
            2.41,
            1.81,
            1.24,
            0.65,
            0.1,
            -0.5,
            -1.1,
            -1.67,
            -2.25,
            -2.84,
            -3.4,
            -3.98,
            -4.56,
            -5.13,
            -5.72,
            -6.29,
            -6.86,
            -7.47,
            -8.05,
            -8.63,
            -9.22,
            -9.8,
            -10.3,
            -10.87,
            -11.45,
            -11.96,
            -12.52,
            -13.13,
            -13.71,
            -14.23,
            -14.83,
            -15.34,
            -15.94,
            -16.53,
            -17.14,
            -17.74,
            -18.26,
            -18.88,
            -19.47,
            -19.98,
            -20.59,
            -21.22,
            -21.85,
            -22.35,
            -22.86,
            -23.48,
            -23.98,
            -24.49,
            -25.02,
            -25.64,
            -26.16,
            -26.67,
            -27.18,
            -27.69,
            -28.24,
            -28.75,
            -29.28,
            -29.82,
            -30.36,
            -30.87,
            -31.44,
            -32.01,
            -32.56,
            -33.12,
            -33.68,
            -34.2,
            -34.77,
            -35.31,
            -35.87,
            -36.42,
            -36.98,
            -37.53,
            -38.1,
            -38.66,
            -39.24,
            -39.82,
            -40.4,
            -40.95,
            -41.53,
            -42.11,
            -42.66,
            -43.24,
            -43.78,
            -44.37,
            -44.94,
            -45.5,
            -46.07,
            -46.67,
            -47.24,
            -47.82,
            -48.37,
            -48.94,
            -49.53,
            -50.09,
            -50.69,
            -51.27,
            -51.86,
            -52.43,
            -53.01,
            -53.39,
            -53.53,
            -53.54,
            -53.54,
            -53.31,
            -53.16,
            -52.85,
            -52.57,
            -52.3,
            -52.03,
            -51.76,
            -51.43,
            -51.15,
            -50.82,
            -50.55,
            -50.24,
            -49.94,
            -49.64,
            -49.37,
            -49.09,
            -48.79,
            -48.5,
            -48.24,
            -47.92,
            -47.6,
            -47.23,
            -46.79,
            -46.42,
            -46.0,
            -45.6,
            -45.19,
            -44.8,
            -44.37,
            -43.93,
            -43.51,
            -43.08,
            -42.65,
            -42.2,
            -41.84,
            -41.43,
            -41.13,
            -40.77,
            -40.38,
            -39.98,
            -39.59,
            -39.21,
            -38.79,
            -38.37,
            -37.9,
            -37.36,
            -37.0,
            -36.46,
            -36.1,
            -35.57,
            -35.06,
            -34.49,
            -33.95,
            -33.36,
            -32.82,
            -32.22,
            -31.67,
            -31.1,
            -30.51,
            -29.95,
            -29.35,
            -28.74,
            -28.15,
            -27.62,
            -27.12,
            -26.6,
            -26.1,
            -25.53,
            -24.98,
            -24.45,
            -23.88,
            -23.32,
            -22.74,
            -22.18,
            -21.63,
            -21.04,
            -20.52,
            -19.97,
            -19.41,
            -18.87,
            -18.28,
            -17.72,
            -17.19,
            -16.63,
            -16.09,
            -15.53,
            -14.97,
            -14.42,
            -13.85,
            -13.3,
            -12.77,
            -12.19,
            -11.67,
            -11.09,
            -10.56,
            -10.02,
            -9.45,
            -8.91,
            -8.39,
            -7.83,
            -7.3,
            -6.74,
            -6.23,
            -5.67,
            -5.15,
            -4.61,
            -4.06,
            -3.52,
            -3.0,
            -2.43,
            -1.9,
            -1.38,
            -0.84,
            -0.31,
            0.25,
            0.75,
            1.28,
            1.83,
            2.36,
            2.9,
            3.46,
            3.98,
            4.52,
            5.05,
            5.58,
            6.14,
            6.65,
            7.2,
            7.75,
            8.29,
            8.83,
            9.4,
            9.93,
            10.48,
            11.03,
            11.6,
            12.15,
            12.7,
            13.21,
            13.79,
            14.34,
            14.91,
            15.47,
            16.04,
            16.44,
            16.97,
            17.62,
            18.24,
            18.85,
            19.41,
            19.95,
            20.2,
            20.81,
            21.46,
            22.0,
            22.54,
            23.16,
            23.7,
            24.31,
            24.86,
            25.47,
            26.11,
            26.65,
            27.22,
            27.82,
            28.46,
            29.01,
            29.53,
            30.07,
            30.75,
            31.26,
            31.91,
            32.47,
            33.12,
            33.71,
            34.36,
            34.91,
            35.56,
            36.16,
            36.81,
            37.38,
            38.04,
            38.63,
            39.27,
            39.87,
            40.51,
            41.09,
            41.63,
            42.21,
            42.88,
            43.44,
            44.0,
            44.57,
            45.21,
            45.8,
            46.33,
            46.93,
            47.58,
            48.16,
            48.71,
            49.27,
            49.47,
            49.5,
            49.32,
            49.05,
            48.82,
            48.57,
            48.3,
            48.07,
            47.86,
            47.5,
            47.27,
            46.99,
            46.76,
            46.45,
            46.21,
            45.89,
            45.56,
            45.23,
            44.93,
            44.61,
            44.32,
            44.02,
            43.71,
            43.41,
            43.14,
            42.85,
            42.56,
            42.21,
            41.89,
            41.57,
            41.24,
            40.86,
            40.54,
            40.17,
            39.82,
            39.43,
            39.08,
            38.76,
            38.41,
            37.98,
            37.64,
            37.23,
            36.77,
            36.2,
            35.69,
            35.15,
            34.63,
            34.09,
            33.55,
            33.01,
            32.43,
            31.89,
            31.34,
            30.76,
            30.25,
            29.69,
            29.15,
            28.6,
            28.13,
            27.6,
            27.01,
            26.45,
            25.87,
            25.32,
            24.72,
            24.14,
            23.55,
            22.96,
            22.35,
            21.85,
            21.23,
            20.72,
            20.19,
            19.67,
            19.04,
            18.54,
            18.01,
            17.51,
            16.97,
            16.47,
            15.84,
            15.31,
            14.81,
            14.29,
            13.79,
            13.28,
            12.75,
            12.23,
            11.72,
            11.1,
            10.58,
            9.95,
            9.45,
            8.95,
            8.37,
            7.8,
            7.18,
            6.55,
            6.05,
            5.54,
            4.97,
            4.39,
            3.75,
            3.13,
            2.62,
            2.12,
            1.51,
            1.01,
            0.39,
            -0.12,
            -0.74,
            -1.35,
            -1.86,
            -2.46,
            -2.97,
            -3.59,
            -4.09,
            -4.71,
            -5.32,
            -5.82,
            -6.44,
            -7.06,
            -7.56,
            -8.18,
            -8.79,
            -9.29,
            -9.81,
            -10.43,
            -11.04,
            -11.55,
            -12.05,
            -12.68,
            -13.18,
            -13.79,
            -14.42,
            -15.03,
            -15.55,
            -16.17,
            -16.69,
            -17.3,
            -17.93,
            -18.43,
            -18.94,
            -19.45,
            -19.96,
            -20.46,
            -20.97,
            -21.49,
            -22.11,
            -22.62,
            -23.14,
            -23.64,
            -24.16,
            -24.68,
            -25.18,
            -25.69,
            -26.21,
            -26.72,
            -27.26,
            -27.78,
            -28.29,
            -28.82,
            -29.36,
            -29.87,
            -30.41,
            -30.96,
            -31.48,
            -32.01,
            -32.51,
            -33.05,
            -33.57,
            -34.1,
            -34.62,
            -35.18,
            -35.72,
            -36.24,
            -36.81,
            -37.32,
            -37.87,
            -38.39,
            -38.92,
            -39.47,
            -40.01,
            -40.56,
            -41.09,
            -41.63,
            -42.18,
            -42.71,
            -43.21,
            -43.77,
            -44.32,
            -44.86,
            -45.43,
            -46.04,
            -46.66,
            -47.19,
            -47.7,
            -48.25,
            -48.86,
            -49.39,
            -49.96,
            -50.56,
            -51.11,
            -51.62,
            -52.18,
            -52.71,
            -53.4,
            -53.95,
            -54.51,
            -54.74,
            -54.86,
            -54.87,
            -54.87,
            -54.86,
            -54.61,
            -54.34,
            -54.04,
            -53.79,
            -53.49,
            -53.19,
            -52.93,
            -52.66,
            -52.34,
            -52.05,
            -51.79,
            -51.49,
            -51.06,
            -50.79,
            -50.34,
            -49.83,
            -49.37,
            -48.88,
            -48.42,
            -47.94,
            -47.44,
            -47.02,
            -46.55,
            -46.08,
            -45.71,
            -45.28,
            -44.86,
            -44.4,
            -43.97,
            -43.55,
            -43.13,
            -42.68,
            -42.21,
            -41.78,
            -41.31,
            -40.87,
            -40.37,
            -39.9,
            -39.36,
            -38.89,
            -38.39,
            -37.86,
            -37.34,
            -36.8,
            -36.3,
            -35.79,
            -35.27,
            -34.72,
            -34.17,
            -33.6,
            -33.01,
            -32.44,
            -31.85,
            -31.25,
            -30.66,
            -30.09,
            -29.5,
            -28.87,
            -28.26,
            -27.63,
            -27.01,
            -26.42,
            -25.99,
            -25.44,
            -24.76,
            -24.03,
            -23.45,
            -22.75,
            -22.14,
            -21.48,
            -20.83,
            -20.18,
            -19.68,
            -19.1,
            -18.41,
            -17.78,
            -17.27,
            -16.71,
            -16.01,
            -15.41,
            -14.72,
            -14.12,
            -13.46,
            -12.81,
            -12.15,
            -11.49,
            -10.86,
            -10.21,
            -9.58,
            -8.91,
            -8.3,
            -7.63,
            -7.0,
            -6.33,
            -5.64,
            -5.06,
            -4.35,
            -3.75,
            -3.07,
            -2.44,
            -1.77,
            -1.17,
            -0.49,
            0.12,
            0.79,
            1.4,
            1.91,
            2.5,
            3.18,
            3.81,
            4.48,
            5.11,
            5.79,
            6.41,
            7.09,
            7.71,
            8.41,
            9.02,
            9.7,
            10.4,
            11.01,
            11.72,
            12.36,
            13.03,
            13.68,
            14.36,
            15.1,
            15.7,
            16.4,
            17.05,
            17.76,
            18.39,
            18.69,
            19.31,
            20.02,
            20.69,
            21.61,
            22.38,
            22.99,
            23.7,
            24.35,
            24.88,
            25.54,
            26.08,
            26.73,
            27.24,
            27.89,
            28.45,
            29.08,
            29.65,
            30.29,
            30.81,
            31.44,
            31.99,
            32.64,
            33.17,
            33.83,
            34.37,
            35.05,
            35.52,
            36.23,
            36.72,
            37.42,
            37.94,
            38.63,
            38.91,
            39.6,
            40.12,
            40.9,
            41.6,
            42.13,
            42.89,
            43.56,
            44.09,
            44.9,
            45.59,
            46.15,
            46.95,
            47.37,
            47.5,
            47.5,
            47.45,
            47.18,
            46.9,
            46.58,
            46.33,
            46.08,
            45.87,
            45.57,
            45.34,
            45.08,
            44.69,
            44.35,
            44.01,
            43.73,
            43.47,
            43.15,
            42.87,
            42.53,
            42.17,
            41.84,
            41.51,
            41.22,
            40.81,
            40.48,
            40.15,
            39.8,
            39.46,
            39.1,
            38.73,
            38.34,
            37.77,
            37.22,
            36.83,
            36.21,
            35.82,
            35.2,
            34.58,
            33.92,
            33.23,
            32.58,
            31.92,
            31.25,
            30.58,
            29.92,
            29.26,
            28.59,
            27.9,
            27.23,
            26.55,
            25.83,
            25.16,
            24.51,
            23.81,
            23.11,
            22.4,
            21.68,
            20.98,
            20.26,
            19.53,
            19.03,
            18.28,
            17.76,
            17.26,
            16.74,
            16.22,
            15.7,
            15.2,
            14.67,
            14.15,
            13.64,
            13.13,
            12.61,
            12.06,
            11.56,
            11.03,
            10.52,
            10.02,
            9.5,
            8.99,
            8.47,
            7.95,
            7.43,
            6.92,
            6.39,
            5.87,
            5.35,
            4.82,
            4.29,
            3.78,
            3.26,
            2.75,
            2.22,
            1.71,
            1.21,
            0.68,
            0.14,
            -0.38,
            -0.9,
            -1.44,
            -1.95,
            -2.45,
            -2.98,
            -3.5,
            -4.01,
            -4.53,
            -5.05,
            -5.57,
            -6.08,
            -6.63,
            -7.39,
            -7.92,
            -8.43,
            -8.93,
            -9.45,
            -9.97,
            -10.49,
            -11.01,
            -11.52,
            -12.03,
            -12.54,
            -13.07,
            -13.57,
            -14.08,
            -14.61,
            -15.36,
            -15.87,
            -16.38,
            -16.89,
            -17.4,
            -17.92,
            -18.43,
            -18.95,
            -19.45,
            -20.19,
            -20.72,
            -21.22,
            -21.98,
            -22.74,
            -23.25,
            -24.01,
            -24.53,
            -25.03,
            -25.54,
            -26.04,
            -26.77,
            -27.43,
            -27.95,
            -28.75,
            -29.39,
            -29.93,
            -30.77,
            -31.63,
            -32.27,
            -32.88,
            -33.71,
            -34.37,
            -35.03,
            -35.59,
            -36.43,
            -37.09,
            -37.74,
            -38.61,
            -39.15,
            -39.68,
            -40.38,
            -41.09,
            -41.89,
            -42.55,
            -43.11,
            -43.64,
            -44.16,
            -44.75,
            -45.4,
            -46.27,
            -46.89,
            -47.4,
            -47.96,
            -48.66,
            -49.67,
            -50.46,
            -50.99,
            -52.1,
            -53.08,
            -53.72,
            -54.36,
            -54.88,
            -54.79,
            -54.92,
            -54.89
        ],
        "force": [
            1.192896,
            2.82528,
            4.206528,
            5.713344,
            7.157376,
            8.852544,
            10.67328,
            12.61958,
            13.68691,
            15.25651,
            17.45395,
            18.77242,
            20.4048,
            21.78605,
            22.97894,
            24.48576,
            25.67866,
            26.87155,
            28.12723,
            29.25734,
            30.70138,
            31.83149,
            33.27552,
            34.59398,
            36.03802,
            37.60762,
            39.17722,
            40.62125,
            42.12806,
            43.50931,
            44.89056,
            46.27181,
            47.65306,
            48.90874,
            50.28999,
            51.67123,
            52.86413,
            54.37094,
            55.62663,
            57.00787,
            58.4519,
            59.83315,
            61.2144,
            62.53286,
            64.29082,
            65.9232,
            67.24166,
            68.93683,
            70.632,
            72.07603,
            73.39449,
            74.83853,
            76.34534,
            77.72659,
            78.98227,
            80.74023,
            82.12148,
            83.50272,
            85.07232,
            86.45357,
            87.5209,
            89.02771,
            90.47174,
            91.85299,
            93.23424,
            94.74106,
            96.24787,
            97.81747,
            99.13593,
            100.58,
            101.9612,
            103.2797,
            104.5354,
            105.8538,
            107.2979,
            108.8047,
            110.2487,
            111.6927,
            113.0112,
            114.4552,
            115.8365,
            117.2177,
            118.5362,
            119.7291,
            120.9848,
            122.1149,
            120.5453,
            118.9129,
            118.1595,
            117.1549,
            115.5226,
            114.0157,
            112.3834,
            110.8138,
            109.3069,
            107.8001,
            106.4189,
            104.9121,
            103.3425,
            101.8984,
            100.7055,
            99.19872,
            97.81747,
            96.56179,
            95.05498,
            93.48537,
            92.16691,
            90.84845,
            89.40442,
            87.8976,
            86.64192,
            85.26067,
            83.75385,
            82.49818,
            80.99136,
            79.23341,
            77.78938,
            76.34534,
            74.46182,
            73.08057,
            71.38541,
            70.00416,
            68.62291,
            67.24166,
            65.48371,
            63.72576,
            62.4073,
            60.90048,
            59.20531,
            57.19622,
            55.75219,
            54.05702,
            52.61299,
            50.72947,
            49.09709,
            47.4647,
            45.70675,
            44.38829,
            42.50477,
            40.93517,
            39.24,
            37.79597,
            36.60307,
            34.78234,
            33.02438,
            31.07808,
            29.8224,
            28.31558,
            26.93434,
            25.30195,
            23.60678,
            22.16275,
            20.53037,
            19.14912,
            17.20282,
            16.26106,
            14.44032,
            13.05907,
            11.74061,
            10.10822,
            8.47584,
            6.90624,
            5.148288,
            3.76704,
            2.51136,
            0.816192,
            -0.62784,
            -2.009088,
            -3.327552,
            -4.897152,
            -6.341184,
            -7.785216,
            -9.166464,
            -10.86163,
            -12.24288,
            -13.68691,
            -15.57043,
            -17.07725,
            -18.58406,
            -20.21645,
            -21.5977,
            -23.10451,
            -24.54854,
            -25.86701,
            -27.37382,
            -28.94342,
            -30.32467,
            -31.70592,
            -33.27552,
            -34.65677,
            -36.41472,
            -37.79597,
            -39.24,
            -40.8096,
            -42.3792,
            -43.9488,
            -45.39283,
            -46.96243,
            -48.46925,
            -49.72493,
            -51.23174,
            -53.05248,
            -54.62208,
            -56.38003,
            -57.76128,
            -59.20531,
            -60.58656,
            -62.15616,
            -63.47462,
            -64.47917,
            -66.04877,
            -67.68115,
            -69.0624,
            -70.31808,
            -72.01324,
            -73.39449,
            -74.58739,
            -76.34534,
            -77.91495,
            -79.29619,
            -80.80301,
            -82.18426,
            -83.56551,
            -84.69562,
            -86.13965,
            -87.70925,
            -89.09049,
            -90.78567,
            -91.97856,
            -93.42259,
            -94.9922,
            -96.18509,
            -97.94304,
            -99.19872,
            -100.3916,
            -101.8984,
            -103.2797,
            -104.7237,
            -106.105,
            -107.4862,
            -109.2442,
            -110.6882,
            -111.8183,
            -113.4507,
            -114.8319,
            -115.9621,
            -117.5316,
            -118.9129,
            -120.1686,
            -121.5498,
            -123.1194,
            -124.124,
            -125.4424,
            -126.447,
            -125.8191,
            -114.1413,
            -111.1905,
            -109.872,
            -108.4908,
            -107.6118,
            -106.105,
            -104.4726,
            -103.1541,
            -101.8984,
            -100.58,
            -99.13593,
            -97.94304,
            -96.62457,
            -95.43168,
            -94.05043,
            -92.9831,
            -91.47629,
            -90.09504,
            -88.71379,
            -87.5209,
            -86.07687,
            -84.88396,
            -83.50272,
            -82.18426,
            -80.86579,
            -79.48454,
            -78.10329,
            -76.9104,
            -75.40359,
            -74.02234,
            -72.76665,
            -71.25984,
            -69.81581,
            -68.62291,
            -67.43002,
            -66.04877,
            -64.54195,
            -63.16071,
            -61.77946,
            -60.33542,
            -58.76582,
            -57.38457,
            -56.12889,
            -54.81043,
            -53.24083,
            -51.85958,
            -50.47834,
            -49.03431,
            -47.71584,
            -46.27181,
            -44.89056,
            -43.5721,
            -42.19085,
            -40.74681,
            -39.55392,
            -38.17267,
            -36.85421,
            -35.47296,
            -34.21728,
            -32.64768,
            -31.45478,
            -29.88518,
            -28.50394,
            -27.0599,
            -25.86701,
            -24.48576,
            -22.60224,
            -21.53491,
            -19.96531,
            -18.4585,
            -17.01446,
            -15.63322,
            -14.37754,
            -12.87072,
            -11.48947,
            -10.04544,
            -8.726976,
            -7.345728,
            -5.96448,
            -4.583232,
            -2.82528,
            -1.5696,
            0.062784,
            1.632384,
            2.950848,
            4.7088,
            5.96448,
            7.659648,
            8.664192,
            10.35936,
            11.61504,
            13.12186,
            14.18918,
            15.25651,
            16.8889,
            18.58406,
            19.83974,
            21.34656,
            22.91616,
            24.48576,
            25.92979,
            27.31104,
            28.50394,
            29.63405,
            30.88973,
            32.20819,
            33.65223,
            35.09626,
            36.4775,
            37.85875,
            39.17722,
            40.74681,
            42.3792,
            43.76045,
            45.1417,
            46.96243,
            48.46925,
            49.91328,
            51.60845,
            53.24083,
            54.37094,
            55.87776,
            57.38457,
            58.64025,
            60.52378,
            61.77946,
            63.47462,
            64.85587,
            66.48826,
            67.86951,
            69.25076,
            71.00871,
            72.70387,
            74.02234,
            75.21523,
            76.59648,
            78.04051,
            79.73568,
            81.17971,
            82.93766,
            84.3817,
            85.95129,
            87.5209,
            88.83936,
            90.59731,
            91.85299,
            93.42259,
            94.74106,
            96.12231,
            97.44077,
            98.94759,
            100.3288,
            101.7729,
            103.2797,
            104.7237,
            106.105,
            107.6118,
            108.8675,
            110.4371,
            111.6927,
            113.0112,
            114.5808,
            116.0248,
            117.4061,
            118.7245,
            120.2941,
            121.487,
            121.8637,
            123.245,
            124.4379,
            125.5052,
            126.1331,
            126.3214,
            126.3214,
            126.447,
            126.2586,
            126.2586,
            126.1958,
            125.8819,
            125.5052,
            124.8774,
            124.5007,
            123.6845,
            123.1194,
            122.6799,
            122.2404,
            121.487,
            120.3569,
            119.7919,
            119.1012,
            118.1595,
            117.3433,
            116.5271,
            115.7109,
            115.1459,
            114.3924,
            113.1368,
            112.2578,
            111.63,
            110.2487,
            109.4325,
            108.0513,
            106.4817,
            104.9121,
            102.9658,
            101.5217,
            100.0777,
            98.57088,
            97.12685,
            95.7456,
            94.42714,
            92.85754,
            91.47629,
            90.03226,
            88.83936,
            87.1442,
            85.88851,
            84.44448,
            83.12601,
            81.55642,
            79.92403,
            78.22887,
            76.72205,
            75.02688,
            73.45728,
            71.69933,
            70.25529,
            68.6857,
            67.05331,
            65.54649,
            64.16525,
            62.72121,
            61.15162,
            59.58202,
            57.76128,
            56.06611,
            54.68486,
            53.17805,
            51.48288,
            50.03885,
            48.46925,
            46.96243,
            45.5184,
            43.9488,
            42.56755,
            41.12352,
            39.6167,
            38.17267,
            36.41472,
            34.97069,
            33.58944,
            32.08262,
            30.45024,
            29.13178,
            27.49939,
            25.99258,
            24.48576,
            23.1673,
            21.53491,
            19.77696,
            18.64685,
            17.39117,
            15.88435,
            14.5031,
            13.05907,
            11.61504,
            10.10822,
            8.726976,
            7.282944,
            5.901696,
            4.520448,
            3.390336,
            1.632384,
            0.439488,
            -1.192896,
            -2.323008,
            -4.018176,
            -5.524992,
            -6.90624,
            -7.910784,
            -9.480384,
            -10.92442,
            -12.24288,
            -13.62413,
            -15.38208,
            -16.76333,
            -18.01901,
            -19.2119,
            -20.7815,
            -22.09997,
            -23.48122,
            -24.7369,
            -26.36928,
            -27.68774,
            -29.13178,
            -30.45024,
            -31.83149,
            -33.21273,
            -34.46841,
            -36.35194,
            -37.60762,
            -38.98886,
            -40.49568,
            -41.75136,
            -43.38374,
            -44.89056,
            -46.14624,
            -47.33913,
            -48.72038,
            -50.28999,
            -51.60845,
            -53.17805,
            -54.936,
            -56.38003,
            -57.76128,
            -58.95418,
            -60.58656,
            -62.15616,
            -63.47462,
            -64.85587,
            -66.11155,
            -67.86951,
            -69.25076,
            -70.88313,
            -72.38995,
            -73.64563,
            -74.9641,
            -76.5337,
            -77.91495,
            -79.54733,
            -80.74023,
            -82.24704,
            -83.94221,
            -85.32346,
            -86.64192,
            -88.08595,
            -89.40442,
            -90.78567,
            -92.16691,
            -93.35981,
            -94.9922,
            -96.37344,
            -97.75468,
            -98.8848,
            -100.4544,
            -101.8356,
            -103.2169,
            -104.0331,
            -103.0285,
            -104.2842,
            -105.4771,
            -106.4817,
            -107.2351,
            -107.4862,
            -106.8584,
            -107.6118,
            -108.2396,
            -108.993,
            -109.3697,
            -109.2442,
            -108.8675,
            -107.4234,
            -107.4234,
            -107.8001,
            -107.2979,
            -106.8584,
            -105.226,
            -105.0376,
            -104.2842,
            -103.5308,
            -101.7101,
            -100.7055,
            -100.1405,
            -99.13593,
            -97.56634,
            -96.9385,
            -96.49901,
            -95.93395,
            -93.79929,
            -93.04589,
            -92.6064,
            -92.16691,
            -90.22061,
            -89.4672,
            -89.02771,
            -88.27431,
            -87.01862,
            -86.26521,
            -85.82573,
            -83.94221,
            -83.50272,
            -83.12601,
            -82.24704,
            -80.74023,
            -80.11238,
            -78.91949,
            -78.48,
            -77.09875,
            -75.52915,
            -73.95955,
            -72.45274,
            -71.00871,
            -69.50188,
            -68.05785,
            -66.48826,
            -65.23257,
            -63.72576,
            -62.34451,
            -60.96326,
            -59.51923,
            -58.20077,
            -56.81952,
            -55.56384,
            -54.05702,
            -52.67578,
            -51.4201,
            -50.03885,
            -48.72038,
            -47.21357,
            -46.08345,
            -43.9488,
            -42.69312,
            -41.50023,
            -39.99341,
            -38.98886,
            -37.73318,
            -35.84966,
            -34.40563,
            -32.77325,
            -31.26643,
            -29.63405,
            -28.06445,
            -26.36928,
            -24.92525,
            -23.48122,
            -21.9744,
            -20.59315,
            -19.2119,
            -17.76787,
            -16.44941,
            -14.69146,
            -13.18464,
            -11.67782,
            -10.10822,
            -8.664192,
            -6.969024,
            -5.524992,
            -4.08096,
            -2.699712,
            -1.192896,
            0.062784,
            1.067328,
            2.950848,
            4.332096,
            5.713344,
            7.157376,
            8.47584,
            10.10822,
            11.48947,
            12.80794,
            14.00083,
            14.62867,
            16.19827,
            17.39117,
            18.96077,
            20.15366,
            20.84429,
            22.03718,
            23.35565,
            24.36019,
            25.74144,
            27.12269,
            28.69229,
            29.88518,
            31.70592,
            33.08717,
            34.46841,
            35.97523,
            37.54483,
            39.17722,
            40.8096,
            42.12806,
            43.76045,
            45.70675,
            47.52749,
            48.90874,
            50.10163,
            52.11072,
            53.99424,
            55.37549,
            56.75674,
            58.76582,
            60.52378,
            62.09338,
            63.78854,
            65.29536,
            66.92774,
            68.43456,
            70.25529,
            71.63654,
            73.39449,
            75.3408,
            76.97318,
            78.91949,
            80.48909,
            82.12148,
            83.75385,
            85.44902,
            86.89306,
            88.46265,
            89.90668,
            91.0368,
            92.2297,
            93.61095,
            94.74106,
            95.99673,
            97.00128,
            97.94304,
            99.13593,
            99.95213,
            100.7055,
            101.5845,
            102.4635,
            103.1541,
            104.0959,
            104.5354,
            105.226,
            105.7283,
            106.4189,
            106.67,
            107.1095,
            107.6746,
            107.9885,
            108.114,
            108.3024,
            108.428,
            108.4908,
            108.428,
            108.3024,
            108.2396,
            108.2396,
            106.8584,
            105.6655,
            104.0331,
            102.3379,
            100.9567,
            99.38707,
            97.6919,
            95.99673,
            94.61549,
            93.17146,
            91.60185,
            90.03226,
            88.90215,
            87.33254,
            85.70016,
            84.50726,
            83.06323,
            81.68198,
            79.98682,
            78.10329,
            75.96864,
            74.39904,
            73.08057,
            71.00871,
            68.81126,
            66.7394,
            64.54195,
            62.53286,
            61.2144,
            59.95872,
            58.51469,
            56.63117,
            55.06157,
            53.05248,
            51.04339,
            49.09709,
            47.27635,
            45.33005,
            43.19539,
            41.62579,
            39.99341,
            38.23545,
            36.41472,
            34.46841,
            32.83603,
            30.88973,
            29.13178,
            27.68774,
            25.99258,
            24.54854,
            22.97894,
            21.22099,
            20.21645,
            18.8352,
            17.01446,
            15.50765,
            13.81248,
            12.30566,
            10.67328,
            8.915328,
            7.471296,
            5.901696,
            4.332096,
            3.013632,
            1.632384,
            0.0,
            -1.5696,
            -2.950848,
            -4.332096,
            -5.776128,
            -7.282944,
            -9.229248,
            -10.6105,
            -12.24288,
            -13.87526,
            -15.44486,
            -16.76333,
            -18.01901,
            -19.40026,
            -21.09542,
            -22.16275,
            -23.66957,
            -24.86246,
            -26.24371,
            -28.2528,
            -29.69683,
            -31.0153,
            -32.77325,
            -34.40563,
            -36.03802,
            -37.41927,
            -38.73773,
            -40.55846,
            -42.19085,
            -43.38374,
            -44.76499,
            -46.14624,
            -47.52749,
            -49.03431,
            -50.28999,
            -51.7968,
            -53.3664,
            -54.43373,
            -55.75219,
            -57.38457,
            -58.89139,
            -60.33542,
            -61.52832,
            -62.72121,
            -64.47917,
            -65.73485,
            -66.86496,
            -68.30899,
            -69.25076,
            -70.88313,
            -72.01324,
            -73.01779,
            -74.33626,
            -75.40359,
            -76.15699,
            -77.2871,
            -77.60102,
            -78.35443,
            -78.79392,
            -79.73568,
            -80.11238,
            -80.67744,
            -81.49363,
            -81.68198,
            -82.24704,
            -82.49818,
            -82.74931,
            -83.25159,
            -83.69107,
            -83.81664,
            -83.94221,
            -84.25613,
            -84.50726,
            -84.82118,
            -84.82118,
            -84.82118,
            -85.00954,
            -84.69562,
            -84.50726,
            -84.69562,
            -84.50726,
            -84.63284,
            -84.06778,
            -83.94221,
            -83.81664,
            -83.25159,
            -82.93766,
            -82.68653,
            -82.24704,
            -81.68198,
            -81.24249,
            -80.74023,
            -79.98682,
            -79.48454,
            -78.66835,
            -77.78938,
            -76.59648,
            -74.9641,
            -73.64563,
            -72.13882,
            -70.632,
            -69.18797,
            -67.68115,
            -66.23712,
            -64.7303,
            -63.28627,
            -61.90503,
            -60.52378,
            -59.20531,
            -57.76128,
            -56.5056,
            -55.18714,
            -53.80589,
            -52.55021,
            -51.16896,
            -49.78771,
            -48.40646,
            -47.02522,
            -45.70675,
            -44.45107,
            -43.13261,
            -41.87693,
            -40.55846,
            -39.17722,
            -37.92154,
            -36.72864,
            -35.41018,
            -34.1545,
            -32.64768,
            -31.20365,
            -29.63405,
            -28.2528,
            -26.93434,
            -25.67866,
            -24.29741,
            -22.97894,
            -21.22099,
            -19.96531,
            -18.64685,
            -17.2656,
            -16.00992,
            -14.56589,
            -13.05907,
            -11.42669,
            -10.04544,
            -8.726976,
            -7.282944,
            -5.524992,
            -4.332096,
            -2.888064,
            -1.506816,
            0.0,
            0.816192,
            2.385792,
            3.76704,
            5.02272,
            6.59232,
            7.785216,
            9.354816,
            11.04998,
            12.80794,
            14.00083,
            14.5031,
            16.0727,
            17.20282,
            18.64685,
            20.0281,
            21.72326,
            22.79059,
            24.10906,
            25.55309,
            27.0599,
            28.31558,
            30.13632,
            31.32922,
            32.39655,
            33.58944,
            34.97069,
            36.16359,
            37.85875,
            39.24,
            40.93517,
            42.31642,
            44.13715,
            45.58118,
            47.33913,
            48.6576,
            50.10163,
            51.48288,
            53.42918,
            54.87321,
            56.19168,
            57.76128,
            59.33088,
            60.96326,
            62.53286,
            64.3536,
            65.67207,
            67.1161,
            68.49734,
            70.19251,
            71.63654,
            73.01779,
            74.58739,
            76.15699,
            77.78938,
            79.54733,
            81.17971,
            80.11238,
            82.05869,
            83.50272,
            84.88396,
            84.88396,
            86.64192,
            87.8976,
            89.02771,
            90.59731,
            91.0368,
            92.6064,
            93.73651,
            94.5527,
            95.43168,
            96.43623,
            97.56634,
            97.75468,
            99.01037,
            99.51264,
            100.3916,
            100.3288,
            101.3334,
            102.3379,
            102.4635,
            103.0913,
            103.0913,
            103.6564,
            104.2842,
            104.6609,
            104.4726,
            104.8493,
            105.1004,
            104.9121,
            105.2888,
            105.4143,
            104.6609,
            103.7192,
            102.2751,
            100.7683,
            99.13593,
            97.3152,
            95.80839,
            93.98765,
            92.41805,
            90.84845,
            89.27885,
            87.70925,
            86.13965,
            84.50726,
            82.87488,
            81.11693,
            79.54733,
            77.72659,
            76.03143,
            74.39904,
            72.76665,
            71.19706,
            69.31354,
            67.68115,
            65.9232,
            64.47917,
            62.97235,
            61.2144,
            59.58202,
            57.94963,
            56.25446,
            54.68486,
            53.17805,
            51.7968,
            50.10163,
            48.53203,
            46.96243,
            45.45562,
            43.9488,
            42.56755,
            40.99795,
            39.55392,
            37.98432,
            36.4775,
            34.46841,
            33.08717,
            31.64314,
            29.50848,
            27.68774,
            25.74144,
            24.17184,
            22.16275,
            20.65594,
            19.14912,
            17.57952,
            16.26106,
            14.87981,
            13.12186,
            11.48947,
            10.04544,
            8.16192,
            6.717888,
            4.959936,
            3.201984,
            1.381248,
            0.062784,
            -1.632384,
            -3.013632,
            -4.520448,
            -5.901696,
            -7.345728,
            -8.664192,
            -10.42214,
            -11.86618,
            -13.43578,
            -14.81702,
            -16.38662,
            -18.01901,
            -19.40026,
            -21.03264,
            -22.41389,
            -23.9207,
            -25.36474,
            -26.6832,
            -28.2528,
            -29.69683,
            -31.07808,
            -32.77325,
            -34.21728,
            -35.59853,
            -37.04256,
            -38.42381,
            -39.6167,
            -40.93517,
            -42.69312,
            -43.88602,
            -45.07891,
            -46.46016,
            -48.21811,
            -49.59936,
            -51.10617,
            -52.80135,
            -54.37094,
            -56.00333,
            -57.32179,
            -58.57747,
            -60.08429,
            -61.46553,
            -62.47008,
            -63.72576,
            -65.04423,
            -66.23712,
            -67.30445,
            -68.30899,
            -69.18797,
            -70.06694,
            -71.00871,
            -71.8249,
            -72.64109,
            -73.26893,
            -73.95955,
            -74.58739,
            -75.15245,
            -75.71751,
            -76.21977,
            -76.9104,
            -77.16154,
            -77.60102,
            -77.97773,
            -78.35443,
            -78.91949,
            -78.79392,
            -79.17062,
            -79.35898,
            -79.6729,
            -79.54733,
            -79.86124,
            -79.73568,
            -79.92403,
            -79.92403,
            -79.92403,
            -79.92403,
            -79.86124,
            -79.6729,
            -79.6729,
            -79.29619,
            -79.10784,
            -78.98227,
            -78.73113,
            -78.35443,
            -77.97773,
            -77.53824,
            -77.16154,
            -75.90585,
            -74.9641,
            -73.83398,
            -72.5783,
            -71.38541,
            -70.19251,
            -68.81126,
            -67.4928,
            -66.23712,
            -64.7303,
            -63.16071,
            -61.52832,
            -60.27264,
            -58.51469,
            -56.94509,
            -55.12435,
            -53.55475,
            -51.7968,
            -50.28999,
            -48.59481,
            -46.83686,
            -45.26727,
            -43.50931,
            -42.31642,
            -40.74681,
            -39.17722,
            -37.54483,
            -36.41472,
            -34.97069,
            -33.21273,
            -31.70592,
            -30.38746,
            -29.00621,
            -27.8761,
            -26.55763,
            -25.30195,
            -23.544,
            -22.3511,
            -21.15821,
            -19.58861,
            -18.14458,
            -16.76333,
            -15.44486,
            -13.87526,
            -12.30566,
            -10.86163,
            -9.480384,
            -8.16192,
            -6.341184,
            -5.085504,
            -3.704256,
            -1.946304,
            -0.565056,
            0.753408,
            2.448576,
            3.955392,
            5.399424,
            6.90624,
            8.350272,
            9.857088,
            11.23834,
            12.9335,
            14.25197,
            15.44486,
            16.82611,
            18.58406,
            19.83974,
            21.34656,
            22.60224,
            23.9207,
            25.17638,
            26.49485,
            27.68774,
            29.13178,
            30.70138,
            32.45933,
            33.90336,
            33.08717,
            34.40563,
            36.16359,
            36.4775,
            37.98432,
            39.55392,
            40.4329,
            41.81414,
            43.32096,
            44.3255,
            45.70675,
            47.15078,
            48.02976,
            49.72493,
            51.04339,
            52.42464,
            53.61753,
            55.18714,
            57.00787,
            57.82406,
            59.58202,
            61.15162,
            62.53286,
            63.53741,
            65.29536,
            66.55104,
            67.68115,
            69.25076,
            70.69479,
            71.57376,
            73.20615,
            74.58739,
            75.40359,
            76.97318,
            78.60557,
            79.29619,
            80.80301,
            82.3726,
            82.93766,
            84.69562,
            85.07232,
            86.89306,
            87.64646,
            89.27885,
            89.65556,
            91.0368,
            92.2297,
            92.79475,
            93.98765,
            94.176,
            95.3689,
            95.43168,
            96.75014,
            97.6919,
            97.75468,
            98.8848,
            98.38253,
            99.70099,
            100.266,
            99.76378,
            100.8939,
            100.3288,
            101.145,
            101.7101,
            100.8939,
            101.6473,
            101.2706,
            101.5217,
            100.5172,
            98.94759,
            96.81293,
            95.3689,
            93.98765,
            92.54362,
            91.22515,
            89.8439,
            88.39987,
            87.08141,
            85.88851,
            83.87943,
            81.93312,
            80.11238,
            78.10329,
            76.34534,
            74.39904,
            72.5783,
            71.07149,
            69.69024,
            67.93229,
            66.11155,
            63.97689,
            62.28173,
            60.39821,
            58.57747,
            56.81952,
            54.87321,
            53.30362,
            51.4201,
            49.53658,
            47.84141,
            45.95789,
            44.3255,
            42.50477,
            40.8096,
            39.17722,
            37.41927,
            35.97523,
            34.21728,
            32.64768,
            31.14086,
            29.50848,
            28.12723,
            26.6832,
            25.30195,
            23.544,
            21.78605,
            20.21645,
            18.8352,
            17.39117,
            15.696,
            14.06362,
            12.43123,
            10.86163,
            9.354816,
            7.785216,
            6.090048,
            4.583232,
            2.950848,
            1.25568,
            -0.31392,
            -1.946304,
            -3.390336,
            -4.959936,
            -6.2784,
            -7.910784,
            -9.292032,
            -10.92442,
            -12.30566,
            -13.81248,
            -15.38208,
            -16.95168,
            -18.33293,
            -19.71418,
            -20.96986,
            -22.53946,
            -23.98349,
            -25.36474,
            -26.74598,
            -28.12723,
            -29.4457,
            -31.0153,
            -32.27098,
            -33.65223,
            -34.97069,
            -36.60307,
            -38.10989,
            -39.36557,
            -40.68403,
            -42.06528,
            -43.50931,
            -44.76499,
            -46.27181,
            -47.71584,
            -49.03431,
            -50.41555,
            -51.67123,
            -52.80135,
            -54.37094,
            -55.56384,
            -56.63117,
            -57.82406,
            -59.14253,
            -60.08429,
            -61.08883,
            -62.09338,
            -63.09792,
            -64.22803,
            -64.91866,
            -65.86041,
            -66.61382,
            -67.43002,
            -68.05785,
            -68.87405,
            -69.4391,
            -70.00416,
            -70.19251,
            -71.07149,
            -71.63654,
            -72.26438,
            -72.5783,
            -73.14336,
            -73.45728,
            -73.95955,
            -74.33626,
            -74.77574,
            -75.02688,
            -75.3408,
            -75.78029,
            -75.78029,
            -76.15699,
            -76.40813,
            -76.34534,
            -76.59648,
            -76.72205,
            -77.09875,
            -76.9104,
            -76.9104,
            -76.9104,
            -76.97318,
            -76.78483,
            -76.59648,
            -76.59648,
            -76.5337,
            -76.34534,
            -76.09421,
            -75.78029,
            -75.52915,
            -75.15245,
            -73.95955,
            -73.33171,
            -71.8249,
            -70.19251,
            -68.99962,
            -67.30445,
            -65.9232,
            -64.7303,
            -63.16071,
            -61.77946,
            -60.58656,
            -59.07974,
            -57.6985,
            -56.38003,
            -54.99878,
            -53.42918,
            -52.04794,
            -50.47834,
            -49.03431,
            -47.84141,
            -46.14624,
            -44.89056,
            -43.50931,
            -42.19085,
            -40.49568,
            -39.17722,
            -37.35648,
            -36.16359,
            -34.78234,
            -33.40109,
            -31.83149,
            -30.1991,
            -28.69229,
            -27.24826,
            -25.74144,
            -24.29741,
            -23.10451,
            -21.72326,
            -20.4048,
            -19.14912,
            -17.57952,
            -16.19827,
            -15.00538,
            -13.62413,
            -12.24288,
            -10.92442,
            -9.480384,
            -8.036352,
            -6.466752,
            -5.085504,
            -3.578688,
            -1.946304,
            -0.62784,
            0.565056,
            2.19744,
            3.515904,
            5.02272,
            6.341184,
            7.910784,
            9.543168,
            10.86163,
            12.49402,
            13.87526,
            15.00538,
            16.57498,
            17.76787,
            19.40026,
            20.7815,
            21.91162,
            22.97894,
            24.48576,
            25.74144,
            27.12269,
            28.31558,
            29.75962,
            31.26643,
            32.89882,
            34.46841,
            36.16359,
            37.79597,
            36.60307,
            38.0471,
            39.74227,
            39.99341,
            41.62579,
            43.19539,
            43.5721,
            45.45562,
            45.8951,
            47.4647,
            49.22266,
            50.85504,
            52.04794,
            53.68032,
            54.37094,
            55.81498,
            57.38457,
            58.01242,
            59.51923,
            60.90048,
            61.52832,
            62.72121,
            64.54195,
            65.29536,
            67.05331,
            68.6857,
            69.50188,
            70.69479,
            72.26438,
            72.76665,
            74.46182,
            75.02688,
            76.72205,
            78.22887,
            78.60557,
            80.17517,
            80.48909,
            82.05869,
            83.31437,
            83.75385,
            85.1351,
            85.1351,
            86.64192,
            86.7047,
            88.02317,
            89.02771,
            90.03226,
            91.16237,
            91.16237,
            92.2297,
            92.35526,
            93.54816,
            94.05043,
            94.80384,
            94.42714,
            95.99673,
            95.55725,
            96.56179,
            96.31065,
            97.50356,
            96.9385,
            97.88026,
            97.3152,
            98.19418,
            97.56634,
            98.19418,
            97.37798,
            98.13139,
            97.37798,
            98.00582,
            96.75014,
            97.18963,
            95.80839,
            96.37344,
            95.3689,
            95.55725,
            94.23878,
            94.5527,
            93.17146,
            93.23424,
            92.16691,
            92.54362,
            90.97401,
            90.97401,
            89.65556,
            89.78112,
            88.46265,
            88.27431,
            86.89306,
            86.89306,
            85.32346,
            85.44902,
            83.94221,
            83.87943,
            82.49818,
            82.3726,
            80.99136,
            80.80301,
            80.74023,
            79.17062,
            77.78938,
            76.5337,
            75.02688,
            73.64563,
            72.01324,
            70.25529,
            68.81126,
            67.30445,
            65.35815,
            63.66298,
            61.71667,
            59.77037,
            57.94963,
            56.06611,
            54.43373,
            52.48742,
            50.66669,
            48.90874,
            47.15078,
            45.5184,
            43.5721,
            42.00249,
            40.37011,
            38.42381,
            36.97977,
            35.22182,
            33.02438,
            31.64314,
            30.26189,
            28.56672,
            26.6832,
            24.79968,
            23.1673,
            21.78605,
            20.53037,
            18.64685,
            17.07725,
            15.82157,
            14.00083,
            12.30566,
            10.35936,
            8.538624,
            6.717888,
            4.771584,
            3.515904,
            1.757952,
            0.062784,
            -1.5696,
            -3.013632,
            -4.583232,
            -6.2784,
            -7.345728,
            -8.664192,
            -10.10822,
            -11.30112,
            -12.68237,
            -14.00083,
            -15.06816,
            -16.57498,
            -17.76787,
            -18.96077,
            -20.4048,
            -21.40934,
            -22.79059,
            -24.17184,
            -25.05082,
            -26.3065,
            -27.24826,
            -28.06445,
            -29.06899,
            -29.8224,
            -30.07354,
            -30.88973,
            -31.392,
            -31.70592,
            -32.39655,
            -33.02438,
            -33.65223,
            -34.21728,
            -34.59398,
            -35.15904,
            -35.78688,
            -36.60307,
            -37.04256,
            -37.60762,
            -38.42381,
            -39.11443,
            -39.99341,
            -40.68403,
            -41.31187,
            -41.93971,
            -43.06982,
            -43.69766,
            -44.70221,
            -45.45562,
            -46.33459,
            -47.59027,
            -48.21811,
            -49.28544,
            -50.16442,
            -51.04339,
            -52.23629,
            -53.05248,
            -54.11981,
            -54.936,
            -56.12889,
            -56.94509,
            -57.76128,
            -58.95418,
            -59.70758,
            -60.71213,
            -61.71667,
            -62.47008,
            -63.53741,
            -64.10246,
            -65.10701,
            -65.67207,
            -66.2999,
            -67.24166,
            -67.80672,
            -68.37177,
            -68.87405,
            -69.81581,
            -70.19251,
            -70.56921,
            -71.38541,
            -71.63654,
            -72.2016,
            -72.32717,
            -72.95501,
            -73.20615,
            -73.58285,
            -73.7712,
            -74.39904,
            -74.5246,
            -74.39904,
            -75.08966,
            -75.08966,
            -75.21523,
            -75.40359,
            -75.71751,
            -75.78029,
            -75.71751,
            -75.96864,
            -75.78029,
            -75.78029,
            -75.71751,
            -75.71751,
            -75.78029,
            -75.59193,
            -75.59193,
            -75.40359,
            -75.21523,
            -75.15245,
            -74.90131,
            -74.58739,
            -74.1479,
            -73.83398,
            -73.58285,
            -73.20615,
            -72.82944,
            -72.45274,
            -72.13882,
            -71.57376,
            -71.19706,
            -70.632,
            -70.06694,
            -69.4391,
            -68.6857,
            -68.24621,
            -67.61837,
            -67.17888,
            -66.48826,
            -66.04877,
            -65.42093,
            -64.66752,
            -64.10246,
            -63.28627,
            -62.53286,
            -61.84224,
            -61.15162,
            -60.52378,
            -59.95872,
            -59.2681,
            -58.57747,
            -57.76128,
            -56.94509,
            -56.19168,
            -55.62663,
            -54.936,
            -54.18259,
            -53.42918,
            -52.73856,
            -52.23629,
            -51.04339,
            -50.41555,
            -49.22266,
            -47.52749,
            -46.27181,
            -45.07891,
            -43.88602,
            -42.25363,
            -40.68403,
            -39.49113,
            -37.98432,
            -36.72864,
            -35.41018,
            -33.96614,
            -32.64768,
            -31.26643,
            -29.88518,
            -28.69229,
            -27.31104,
            -25.86701,
            -24.7369,
            -23.48122,
            -22.16275,
            -20.90707,
            -19.90253,
            -18.52128,
            -17.01446,
            -15.57043,
            -14.18918,
            -12.87072,
            -11.61504,
            -10.23379,
            -8.726976,
            -7.345728,
            -6.152832,
            -4.7088,
            -3.327552,
            -1.820736,
            -0.439488,
            0.94176,
            2.260224,
            3.515904,
            5.02272,
            6.59232,
            8.099136,
            9.480384,
            10.73606,
            12.05453,
            13.31021,
            14.69146,
            16.19827,
            17.57952,
            18.77242,
            19.96531,
            21.34656,
            22.53946,
            23.98349,
            25.17638,
            26.36928,
            27.49939,
            28.88064,
            30.07354,
            31.07808,
            32.39655,
            33.46387,
            34.59398,
            35.59853,
            36.60307,
            37.23091,
            37.98432,
            38.73773,
            39.42835,
            39.99341,
            40.18176,
            40.37011,
            40.62125,
            40.8096,
            41.1863,
            41.50023,
            41.62579,
            41.81414,
            42.00249,
            42.31642,
            42.69312,
            42.94426,
            43.32096,
            43.69766,
            44.13715,
            44.38829,
            44.89056,
            45.5184,
            45.70675,
            46.08345,
            46.52295,
            46.89965,
            47.27635,
            48.02976,
            48.34368,
            48.90874,
            49.53658,
            50.03885,
            50.47834,
            51.10617,
            51.67123,
            52.42464,
            52.9897,
            53.61753,
            54.37094,
            54.99878,
            55.75219,
            56.19168,
            57.00787,
            57.63571,
            58.51469,
            59.14253,
            59.95872,
            60.58656,
            61.33997,
            62.09338,
            62.784,
            63.53741,
            64.16525,
            64.85587,
            65.54649,
            66.42547,
            67.1161,
            67.80672,
            68.49734,
            69.0624,
            69.62746,
            70.25529,
            71.00871,
            71.38541,
            72.01324,
            72.5783,
            73.08057,
            73.64563,
            74.1479,
            74.65018,
            75.02688,
            75.3408,
            75.84307,
            76.34534,
            76.59648,
            77.16154,
            77.34989,
            77.72659,
            78.29165,
            75.02688,
            76.15699,
            75.3408,
            76.5337,
            75.84307,
            76.59648,
            77.34989,
            75.84307,
            77.16154,
            76.15699,
            76.97318,
            77.60102,
            77.03596,
            77.72659,
            76.9104,
            77.53824,
            76.72205,
            77.22432,
            76.59648,
            76.9104,
            76.21977,
            75.52915,
            75.84307,
            74.9641,
            75.78029,
            74.77574,
            74.77574,
            73.64563,
            74.02234,
            72.95501,
            73.26893,
            72.01324,
            72.2016,
            71.00871,
            71.38541,
            69.87859,
            70.06694,
            68.81126,
            69.0624,
            67.4928,
            67.68115,
            66.2999,
            66.55104,
            65.04423,
            65.29536,
            63.85133,
            63.97689,
            63.91411,
            62.784,
            61.33997,
            61.40275,
            61.33997,
            60.14707,
            58.82861,
            58.95418,
            57.25901,
            57.57293,
            56.19168,
            55.37549,
            53.86867,
            52.11072,
            50.66669,
            48.90874,
            47.27635,
            45.70675,
            44.13715,
            42.19085,
            40.8096,
            39.24,
            37.85875,
            36.16359,
            34.59398,
            32.71046,
            31.07808,
            29.06899,
            27.37382,
            25.36474,
            23.98349,
            22.22554,
            20.65594,
            19.14912,
            17.6423,
            16.0727,
            14.5031,
            13.05907,
            11.48947,
            9.543168,
            7.910784,
            6.215616,
            4.520448,
            3.013632,
            1.444032,
            -0.188352,
            -1.820736,
            -3.201984,
            -4.897152,
            -6.341184,
            -7.848,
            -9.292032,
            -10.86163,
            -12.49402,
            -13.62413,
            -15.00538,
            -16.19827,
            -17.57952,
            -18.77242,
            -20.0281,
            -21.15821,
            -22.47667,
            -23.73235,
            -25.1136,
            -26.43206,
            -27.49939,
            -29.00621,
            -30.07354,
            -31.26643,
            -32.5849,
            -33.58944,
            -34.59398,
            -35.72409,
            -36.72864,
            -37.79597,
            -38.73773,
            -39.55392,
            -40.55846,
            -41.31187,
            -41.75136,
            -42.06528,
            -41.87693,
            -42.25363,
            -42.50477,
            -42.75591,
            -42.94426,
            -43.13261,
            -43.25817,
            -43.63488,
            -43.88602,
            -44.07437,
            -44.45107,
            -44.51385,
            -44.63942,
            -45.07891,
            -45.07891,
            -45.33005,
            -45.45562,
            -46.02067,
            -46.20902,
            -46.27181,
            -46.52295,
            -47.088,
            -47.088,
            -47.4647,
            -47.71584,
            -48.09254,
            -48.40646,
            -48.6576,
            -48.84595,
            -49.22266,
            -49.59936,
            -50.03885,
            -50.41555,
            -50.41555,
            -51.04339,
            -51.4201,
            -51.67123,
            -52.04794,
            -52.42464,
            -52.73856,
            -53.05248,
            -53.42918,
            -53.99424,
            -53.99424,
            -54.24538,
            -54.74765,
            -55.18714,
            -55.56384,
            -55.81498,
            -56.12889,
            -56.5056,
            -56.88231,
            -57.32179,
            -57.57293,
            -57.76128,
            -57.88685,
            -58.13799,
            -58.38912,
            -58.57747,
            -58.95418,
            -59.14253,
            -59.2681,
            -59.51923,
            -59.77037,
            -59.95872,
            -60.08429,
            -60.14707,
            -60.14707,
            -60.46099,
            -60.64935,
            -60.52378,
            -60.64935,
            -60.46099,
            -60.8377,
            -60.64935,
            -60.8377,
            -60.8377,
            -60.71213,
            -60.90048,
            -60.52378,
            -60.71213,
            -60.71213,
            -60.52378,
            -60.33542,
            -60.27264,
            -60.14707,
            -60.27264,
            -60.08429,
            -59.89594,
            -59.70758,
            -59.45645,
            -59.45645,
            -59.2681,
            -58.89139,
            -58.70304,
            -58.32634,
            -57.76128,
            -58.01242,
            -57.76128,
            -57.38457,
            -56.94509,
            -56.75674,
            -56.31725,
            -56.12889,
            -55.75219,
            -55.3127,
            -54.81043,
            -54.62208,
            -53.99424,
            -53.7431,
            -53.05248,
            -52.61299,
            -52.36185,
            -51.7968,
            -51.48288,
            -50.85504,
            -50.28999,
            -50.03885,
            -49.41101,
            -48.46925,
            -48.09254,
            -47.4647,
            -46.83686,
            -46.08345,
            -45.5184,
            -45.07891,
            -44.3255,
            -43.76045,
            -43.06982,
            -42.50477,
            -41.75136,
            -41.31187,
            -40.68403,
            -39.99341,
            -39.36557,
            -38.61216,
            -38.10989,
            -37.16813,
            -35.97523,
            -35.41018,
            -34.02893,
            -32.83603,
            -31.07808,
            -29.69683,
            -28.31558,
            -27.0599,
            -25.67866,
            -24.36019,
            -22.97894,
            -21.78605,
            -20.53037,
            -19.2119,
            -17.95622,
            -16.63776,
            -15.44486,
            -13.68691,
            -12.49402,
            -10.86163,
            -9.292032,
            -7.722432,
            -6.152832,
            -4.583232,
            -2.950848,
            -1.506816,
            0.062784,
            1.25568,
            2.636928,
            4.39488,
            6.090048,
            7.722432,
            9.354816,
            10.86163,
            12.30566,
            13.62413,
            14.87981,
            16.44941,
            17.95622,
            19.02355,
            20.34202,
            21.53491,
            22.72781,
            23.9207,
            25.30195,
            26.49485,
            27.75053,
            29.06899,
            30.07354,
            31.32922,
            32.39655,
            33.65223,
            35.09626,
            36.16359,
            37.35648,
            38.54938,
            39.80506,
            40.8096,
            42.00249,
            43.13261,
            44.13715,
            45.1417,
            45.95789,
            47.15078,
            47.84141,
            48.46925,
            49.09709,
            46.64851,
            47.65306,
            47.088,
            46.64851,
            47.52749,
            47.33913,
            48.15533,
            47.84141,
            48.6576,
            48.09254,
            47.84141,
            48.53203,
            48.02976,
            49.09709,
            48.34368,
            49.47379,
            48.72038,
            49.91328,
            49.09709,
            50.47834,
            50.2272,
            51.04339,
            50.66669,
            50.47834,
            51.48288,
            51.10617,
            52.23629,
            51.98515,
            52.9897,
            52.48742,
            53.80589,
            53.49197,
            53.17805,
            54.24538,
            53.99424,
            55.18714,
            54.81043,
            55.94054,
            55.56384,
            56.44282,
            56.00333,
            57.38457,
            56.63117,
            58.20077,
            57.19622,
            58.57747,
            58.01242,
            59.20531,
            58.76582,
            59.95872,
            59.39367,
            60.71213,
            59.89594,
            60.96326,
            60.52378,
            61.5911,
            61.52832,
            60.71213,
            61.90503,
            61.2144,
            62.15616,
            61.90503,
            62.47008,
            61.96781,
            61.52832,
            62.28173,
            61.71667,
            62.34451,
            61.90503,
            62.53286,
            61.2144,
            61.96781,
            61.08883,
            61.77946,
            61.2144,
            61.71667,
            61.08883,
            60.14707,
            60.77491,
            59.51923,
            60.20985,
            58.76582,
            59.20531,
            58.20077,
            58.64025,
            57.44736,
            57.76128,
            56.75674,
            57.00787,
            55.81498,
            56.38003,
            54.99878,
            55.37549,
            54.18259,
            54.62208,
            53.24083,
            53.68032,
            52.42464,
            52.86413,
            51.48288,
            51.85958,
            50.66669,
            50.91782,
            49.53658,
            49.91328,
            48.84595,
            48.02976,
            48.02976,
            47.15078,
            46.08345,
            46.33459,
            45.33005,
            44.19994,
            44.19994,
            43.13261,
            41.93971,
            40.62125,
            39.55392,
            38.17267,
            36.66586,
            35.47296,
            33.65223,
            31.64314,
            30.13632,
            28.75507,
            27.12269,
            25.36474,
            24.10906,
            22.72781,
            20.65594,
            18.77242,
            16.70054,
            15.25651,
            13.68691,
            12.05453,
            10.29658,
            7.973568,
            6.152832,
            4.332096,
            2.82528,
            1.25568,
            -0.62784,
            -2.385792,
            -3.892608,
            -5.524992,
            -7.157376,
            -8.538624,
            -10.10822,
            -11.61504,
            -13.62413,
            -15.38208,
            -16.76333,
            -18.52128,
            -19.90253,
            -21.5977,
            -23.29286,
            -24.67411,
            -26.05536,
            -27.24826,
            -28.69229,
            -30.01075,
            -31.392,
            -32.9616,
            -34.40563,
            -35.72409,
            -36.97977,
            -38.29824,
            -39.49113,
            -40.49568,
            -42.06528,
            -43.06982,
            -44.13715,
            -45.1417,
            -45.8951,
            -46.83686,
            -47.59027,
            -48.2809,
            -48.90874,
            -49.41101,
            -49.85049,
            -49.85049,
            -49.97606,
            -49.85049,
            -49.78771,
            -49.85049,
            -49.78771,
            -49.85049,
            -49.97606,
            -49.97606,
            -49.78771,
            -49.97606,
            -49.66214,
            -49.97606,
            -49.78771,
            -49.78771,
            -49.66214,
            -49.59936,
            -49.47379,
            -49.59936,
            -49.47379,
            -49.47379,
            -49.41101,
            -49.41101,
            -49.47379,
            -49.28544,
            -49.22266,
            -49.28544,
            -49.09709,
            -49.22266,
            -49.03431,
            -49.03431,
            -48.90874,
            -48.84595,
            -48.78317,
            -48.78317,
            -48.59481,
            -48.46925,
            -48.40646,
            -48.21811,
            -48.2809,
            -48.2809,
            -48.02976,
            -48.02976,
            -47.90419,
            -47.84141,
            -47.71584,
            -47.65306,
            -47.65306,
            -47.59027,
            -47.40192,
            -47.4647,
            -47.27635,
            -47.21357,
            -47.088,
            -46.83686,
            -46.89965,
            -46.7113,
            -46.7113,
            -46.64851,
            -46.52295,
            -46.33459,
            -46.20902,
            -46.08345,
            -45.8951,
            -45.83232,
            -45.70675,
            -45.45562,
            -45.45562,
            -45.07891,
            -45.1417,
            -44.82778,
            -44.63942,
            -44.45107,
            -44.3255,
            -44.07437,
            -43.76045,
            -43.50931,
            -43.25817,
            -42.94426,
            -42.56755,
            -42.3792,
            -42.12806,
            -42.06528,
            -39.80506,
            -39.80506,
            -38.98886,
            -38.54938,
            -38.73773,
            -37.79597,
            -36.97977,
            -37.35648,
            -36.54029,
            -35.59853,
            -34.78234,
            -33.14995,
            -33.14995,
            -32.08262,
            -31.07808,
            -31.20365,
            -30.26189,
            -29.32013,
            -29.25734,
            -28.44115,
            -28.31558,
            -27.24826,
            -26.3065,
            -25.86701,
            -24.29741,
            -23.10451,
            -22.09997,
            -22.3511,
            -21.15821,
            -19.96531,
            -19.77696,
            -18.52128,
            -18.33293,
            -16.76333,
            -15.57043,
            -15.06816,
            -13.18464,
            -8.350272,
            -6.090048,
            -6.655104,
            -5.524992,
            -5.273856,
            -3.892608,
            -2.574144,
            -1.318464
        ]
    }
}