{
    "Name": "Galeota et al. 1996, BB",
    "Type": "Rectangular",
    "fpc": 80.0,
    "fyt": 430.0,
    "fsut": 0.0,
    "fyl": 430.0,
    "fsul": 0.0,
    "Width": 250.0,
    "Depth": 250.0,
    "L_Inflection": 1140.0,
    "L_Measured": 1140.0,
    "TestConfiguration": "Double Ended",
    "AxLoad": 1000.0,
    "P_Delta": "Shear provided",
    "dlb": 20.0,
    "dlb_c": 20.0,
    "nlb": 12.0,
    "cc_per": 30.0,
    "nib_per": 2.0,
    "cc_par": 30.0,
    "nib_par": 2.0,
    "SubType": "RI: Rectangular and interlocking ties",
    "nsl": 4.0,
    "dtb_rcs": 8.0,
    "s_rcs": 100.0,
    "FailureType": "Flexure",
    "data": {
        "disp": [
            0.2,
            0.4,
            0.52,
            0.62,
            0.86,
            1.07,
            1.11,
            1.23,
            1.35,
            1.57,
            1.67,
            1.83,
            2.01,
            2.13,
            2.28,
            2.45,
            2.6,
            2.95,
            3.07,
            3.22,
            3.55,
            3.73,
            3.89,
            4.21,
            4.37,
            4.53,
            4.91,
            5.1,
            5.24,
            5.62,
            5.82,
            5.99,
            6.34,
            6.6,
            6.77,
            7.12,
            7.32,
            7.57,
            7.94,
            8.140001,
            8.32,
            8.729999,
            8.859999,
            9.08,
            9.47,
            9.68,
            9.899999,
            10.32,
            10.53,
            10.69,
            11.1,
            11.32,
            11.5,
            11.92,
            12.1,
            12.53,
            12.73,
            12.93,
            13.3,
            13.53,
            13.74,
            14.12,
            14.28,
            14.55,
            14.93,
            15.13,
            15.52,
            15.69,
            16.14,
            16.38,
            16.8,
            17.0,
            17.43,
            17.58,
            18.01,
            18.23,
            19.0,
            19.42,
            19.88,
            19.47,
            19.04,
            18.71,
            18.49,
            18.28,
            18.0,
            17.49,
            17.17,
            16.81,
            16.52,
            16.21,
            15.93,
            15.71,
            15.44,
            15.15,
            14.88,
            14.68,
            14.4,
            14.14,
            13.91,
            13.66,
            13.4,
            13.1,
            12.87,
            12.62,
            12.34,
            12.11,
            11.87,
            11.56,
            11.31,
            11.08,
            10.84,
            10.54,
            10.32,
            10.02,
            9.83,
            9.57,
            9.3,
            8.810001,
            8.560001,
            8.33,
            8.09,
            7.86,
            7.64,
            7.37,
            7.14,
            6.9,
            6.67,
            6.24,
            6.03,
            5.81,
            5.4,
            5.23,
            5.06,
            4.78,
            4.63,
            4.42,
            4.11,
            3.98,
            3.85,
            3.59,
            3.4,
            3.28,
            3.08,
            2.83,
            2.78,
            2.59,
            2.23,
            2.06,
            1.89,
            1.54,
            1.37,
            1.22,
            0.82,
            0.64,
            0.5,
            0.16,
            -0.03,
            -0.24,
            -0.59,
            -0.81,
            -0.98,
            -1.19,
            -1.44,
            -1.69,
            -2.04,
            -2.21,
            -2.4,
            -2.8,
            -3.0,
            -3.42,
            -3.58,
            -3.76,
            -4.19,
            -4.37,
            -4.55,
            -4.94,
            -5.13,
            -5.31,
            -5.74,
            -5.95,
            -6.14,
            -6.55,
            -6.79,
            -6.98,
            -7.4,
            -7.68,
            -8.140001,
            -8.350001,
            -8.55,
            -8.99,
            -9.21,
            -9.66,
            -9.91,
            -10.34,
            -10.6,
            -11.08,
            -11.3,
            -11.8,
            -12.02,
            -12.26,
            -12.73,
            -12.99,
            -13.21,
            -13.71,
            -13.97,
            -14.43,
            -14.67,
            -15.18,
            -15.43,
            -15.88,
            -16.15,
            -16.64,
            -16.86,
            -17.36,
            -17.63,
            -18.11,
            -18.37,
            -18.87,
            -19.15,
            -19.73,
            -19.94,
            -20.21,
            -20.69,
            -20.91,
            -21.45,
            -21.7,
            -21.93,
            -22.47,
            -22.74,
            -23.35,
            -24.22,
            -24.77,
            -24.61,
            -24.3,
            -23.95,
            -23.7,
            -23.46,
            -23.26,
            -22.95,
            -22.71,
            -22.49,
            -22.25,
            -22.02,
            -21.49,
            -21.24,
            -21.0,
            -20.78,
            -20.52,
            -20.26,
            -20.03,
            -19.79,
            -19.52,
            -19.06,
            -18.82,
            -18.57,
            -18.31,
            -18.08,
            -17.6,
            -17.34,
            -17.1,
            -16.86,
            -16.62,
            -16.14,
            -15.89,
            -15.69,
            -15.41,
            -15.19,
            -14.94,
            -14.72,
            -14.25,
            -14.01,
            -13.79,
            -13.27,
            -13.05,
            -12.82,
            -12.6,
            -12.36,
            -11.9,
            -11.64,
            -11.43,
            -11.16,
            -10.97,
            -10.7,
            -10.44,
            -10.2,
            -9.97,
            -9.74,
            -9.51,
            -9.24,
            -9.01,
            -8.75,
            -8.54,
            -8.310001,
            -8.05,
            -7.79,
            -7.57,
            -7.35,
            -7.13,
            -6.66,
            -6.44,
            -6.2,
            -5.73,
            -5.48,
            -5.3,
            -4.85,
            -4.64,
            -4.4,
            -3.97,
            -3.78,
            -3.57,
            -3.25,
            -3.23,
            -2.82,
            -2.65,
            -2.46,
            -2.05,
            -1.92,
            -1.78,
            -1.46,
            -1.34,
            -1.14,
            -0.91,
            -0.77,
            -0.62,
            -0.25,
            -0.05,
            0.14,
            0.52,
            0.74,
            0.93,
            1.37,
            1.64,
            1.86,
            2.12,
            2.38,
            2.61,
            2.86,
            3.12,
            3.38,
            3.64,
            3.88,
            4.17,
            4.4,
            4.68,
            5.21,
            5.49,
            5.77,
            6.03,
            6.3,
            6.63,
            6.91,
            7.18,
            7.45,
            7.74,
            7.98,
            8.270001,
            8.560001,
            8.84,
            9.12,
            9.390001,
            9.68,
            9.97,
            10.24,
            10.55,
            10.83,
            11.1,
            11.4,
            11.7,
            11.95,
            12.26,
            12.54,
            12.82,
            13.1,
            13.39,
            13.7,
            13.95,
            14.23,
            14.52,
            14.81,
            15.09,
            15.39,
            15.7,
            15.94,
            16.23,
            16.51,
            16.82,
            17.09,
            17.37,
            17.64,
            17.93,
            18.27,
            18.53,
            18.82,
            19.13,
            19.74,
            20.02,
            20.53,
            21.14,
            21.48,
            21.77,
            22.35,
            22.66,
            23.37,
            23.79,
            24.2,
            24.86,
            25.5,
            25.91,
            26.57,
            27.39,
            28.18,
            29.48,
            29.91,
            30.68,
            31.49,
            31.96,
            32.76,
            34.05,
            34.52,
            35.34,
            35.83,
            36.66,
            37.46,
            37.94,
            38.79,
            39.2,
            39.65,
            40.49,
            41.31,
            41.74,
            42.75,
            42.8,
            42.75,
            42.53,
            42.26,
            42.02,
            41.74,
            41.47,
            41.18,
            40.94,
            40.65,
            40.37,
            39.88,
            39.63,
            39.36,
            39.07,
            38.83,
            38.55,
            38.29,
            38.01,
            37.73,
            37.48,
            37.25,
            36.96,
            36.7,
            36.42,
            36.15,
            35.86,
            35.59,
            35.36,
            35.08,
            34.83,
            34.54,
            34.27,
            34.01,
            33.78,
            33.48,
            33.26,
            32.96,
            32.69,
            32.44,
            32.14,
            31.88,
            31.63,
            31.35,
            31.1,
            30.83,
            30.56,
            30.31,
            30.04,
            29.77,
            29.53,
            29.26,
            29.02,
            28.76,
            28.51,
            28.14,
            27.84,
            27.53,
            27.33,
            27.01,
            26.58,
            26.31,
            26.1,
            25.64,
            25.47,
            25.13,
            24.91,
            24.64,
            24.25,
            24.01,
            23.75,
            23.51,
            23.36,
            22.96,
            22.79,
            22.41,
            22.25,
            21.92,
            21.66,
            21.26,
            21.04,
            20.59,
            20.35,
            19.88,
            19.62,
            19.14,
            18.9,
            18.4,
            18.15,
            17.91,
            17.43,
            17.16,
            16.64,
            16.37,
            15.88,
            15.58,
            15.07,
            14.8,
            14.54,
            14.0,
            13.71,
            13.17,
            12.9,
            12.56,
            11.71,
            11.42,
            10.89,
            10.57,
            10.0,
            9.689999,
            9.42,
            8.859999,
            8.560001,
            7.67,
            7.37,
            6.52,
            6.15,
            5.38,
            5.06,
            4.48,
            4.2,
            3.62,
            3.01,
            2.75,
            2.17,
            1.86,
            1.34,
            1.04,
            0.51,
            0.19,
            -0.04,
            -0.59,
            -0.87,
            -1.47,
            -1.7,
            -2.24,
            -2.47,
            -2.99,
            -3.26,
            -3.48,
            -4.06,
            -4.3,
            -4.81,
            -5.07,
            -5.53,
            -5.83,
            -6.1,
            -6.6,
            -6.86,
            -7.33,
            -7.56,
            -8.05,
            -8.36,
            -9.07,
            -9.350001,
            -9.84,
            -10.09,
            -10.58,
            -10.82,
            -11.09,
            -11.6,
            -11.85,
            -12.34,
            -12.6,
            -13.13,
            -13.37,
            -13.84,
            -14.11,
            -14.35,
            -14.86,
            -15.14,
            -15.9,
            -16.2,
            -16.67,
            -16.94,
            -17.53,
            -17.77,
            -18.3,
            -18.54,
            -18.82,
            -19.34,
            -19.63,
            -20.2,
            -20.73,
            -21.01,
            -21.6,
            -21.93,
            -22.34,
            -23.0,
            -23.58,
            -23.86,
            -24.48,
            -25.43,
            -25.76,
            -26.43,
            -27.14,
            -27.79,
            -28.45,
            -29.46,
            -30.15,
            -30.81,
            -31.49,
            -31.77,
            -32.57,
            -33.22,
            -33.93,
            -34.65,
            -35.4,
            -36.12,
            -36.85,
            -37.62,
            -38.42,
            -39.13,
            -39.87,
            -40.68,
            -41.48,
            -41.86,
            -42.26,
            -43.03,
            -44.17,
            -44.99,
            -45.76,
            -46.92,
            -47.68,
            -48.55,
            -49.33,
            -49.7,
            -50.5,
            -51.32,
            -52.48,
            -53.58,
            -53.88,
            -53.69,
            -53.36,
            -53.23,
            -52.71,
            -52.45,
            -52.18,
            -51.93,
            -51.68,
            -51.4,
            -51.15,
            -50.82,
            -50.48,
            -50.11,
            -49.89,
            -49.61,
            -49.35,
            -49.1,
            -48.86,
            -48.63,
            -48.35,
            -48.09,
            -47.83,
            -47.58,
            -47.33,
            -47.06,
            -46.79,
            -46.56,
            -46.29,
            -45.77,
            -45.54,
            -45.25,
            -45.04,
            -44.75,
            -44.51,
            -44.26,
            -43.98,
            -43.76,
            -43.51,
            -43.25,
            -42.98,
            -42.74,
            -42.49,
            -42.26,
            -41.96,
            -41.71,
            -41.43,
            -41.22,
            -40.92,
            -40.67,
            -40.38,
            -40.13,
            -39.88,
            -39.64,
            -39.32,
            -39.08,
            -38.8,
            -38.31,
            -37.99,
            -37.75,
            -37.45,
            -36.97,
            -36.67,
            -36.4,
            -36.13,
            -35.86,
            -35.6,
            -35.33,
            -35.05,
            -34.78,
            -34.54,
            -34.27,
            -33.66,
            -33.44,
            -33.17,
            -32.86,
            -32.62,
            -32.35,
            -32.1,
            -31.75,
            -31.52,
            -31.25,
            -30.99,
            -30.71,
            -30.4,
            -30.15,
            -29.9,
            -29.6,
            -29.37,
            -28.85,
            -28.56,
            -28.1,
            -28.0,
            -27.61,
            -27.35,
            -27.11,
            -26.85,
            -26.56,
            -26.09,
            -25.91,
            -25.47,
            -25.25,
            -24.9,
            -24.74,
            -24.13,
            -23.9,
            -23.51,
            -23.03,
            -22.74,
            -22.23,
            -21.95,
            -21.65,
            -21.08,
            -20.74,
            -20.17,
            -19.91,
            -19.3,
            -18.99,
            -18.36,
            -18.02,
            -17.36,
            -17.05,
            -16.39,
            -16.03,
            -15.38,
            -15.04,
            -14.32,
            -13.98,
            -13.28,
            -12.93,
            -12.22,
            -11.88,
            -11.17,
            -10.83,
            -10.13,
            -9.74,
            -9.42,
            -8.75,
            -8.399999,
            -8.01,
            -7.34,
            -6.97,
            -6.29,
            -5.95,
            -5.27,
            -4.57,
            -4.24,
            -3.54,
            -3.17,
            -2.51,
            -2.18,
            -1.47,
            -1.17,
            -0.8,
            -0.09000001,
            0.2,
            0.85,
            1.21,
            1.85,
            2.16,
            2.83,
            3.15,
            3.81,
            4.17,
            4.46,
            4.79,
            5.46,
            5.86,
            6.29,
            6.76,
            7.41,
            7.68,
            8.350001,
            8.689999,
            9.350001,
            9.68,
            10.32,
            10.63,
            11.3,
            11.63,
            12.27,
            12.64,
            12.96,
            13.64,
            13.97,
            14.31,
            14.98,
            15.34,
            15.71,
            16.35,
            16.73,
            17.01,
            17.74,
            18.02,
            18.44,
            19.13,
            19.83,
            20.2,
            20.53,
            21.22,
            21.94,
            22.32,
            22.98,
            23.73,
            24.43,
            24.84,
            25.55,
            26.28,
            27.0,
            27.36,
            27.75,
            28.49,
            29.24,
            29.96,
            30.72,
            31.49,
            32.23,
            33.03,
            33.79,
            34.6,
            35.35,
            36.11,
            36.88,
            37.66,
            38.5,
            39.34,
            40.16,
            40.93,
            41.76,
            42.56,
            42.79,
            42.56,
            42.1,
            41.61,
            41.17,
            40.93,
            40.61,
            40.28,
            39.92,
            39.45,
            39.19,
            38.88,
            38.48,
            38.11,
            37.8,
            37.39,
            37.07,
            36.71,
            36.38,
            36.08,
            35.65,
            35.37,
            34.98,
            34.63,
            34.24,
            33.97,
            33.52,
            33.24,
            32.84,
            32.58,
            32.17,
            31.83,
            31.49,
            31.14,
            30.77,
            30.41,
            30.07,
            29.77,
            29.37,
            29.14,
            28.83,
            28.47,
            28.1,
            27.8,
            27.44,
            27.14,
            26.81,
            26.48,
            26.29,
            25.95,
            25.62,
            25.38,
            25.19,
            24.62,
            24.35,
            24.01,
            23.67,
            23.45,
            22.98,
            22.68,
            22.4,
            21.96,
            21.87,
            21.36,
            21.22,
            20.8,
            20.47,
            20.19,
            19.89,
            19.59,
            19.15,
            18.91,
            18.56,
            18.16,
            17.99,
            17.64,
            17.22,
            17.02,
            16.67,
            16.32,
            15.89,
            15.61,
            15.29,
            14.97,
            14.56,
            14.18,
            13.5,
            13.18,
            12.73,
            12.36,
            11.58,
            11.02,
            10.66,
            10.32,
            9.560001,
            9.25,
            8.53,
            8.13,
            7.41,
            6.97,
            6.27,
            5.94,
            5.07,
            4.74,
            4.4,
            3.62,
            3.16,
            2.42,
            2.09,
            1.26,
            0.92,
            0.16,
            -0.21,
            -0.91,
            -1.34,
            -2.1,
            -2.42,
            -2.82,
            -3.13,
            -3.94,
            -4.31,
            -5.06,
            -5.33,
            -6.1,
            -6.47,
            -7.12,
            -7.54,
            -8.26,
            -8.63,
            -9.399999,
            -9.68,
            -10.4,
            -10.79,
            -11.54,
            -11.86,
            -12.63,
            -13.03,
            -13.72,
            -14.12,
            -14.89,
            -15.22,
            -15.91,
            -16.3,
            -17.06,
            -17.56,
            -17.93,
            -18.68,
            -19.05,
            -19.42,
            -20.23,
            -20.59,
            -21.02,
            -21.86,
            -22.25,
            -22.6,
            -23.42,
            -23.86,
            -24.22,
            -25.09,
            -25.87,
            -26.31,
            -27.21,
            -27.96,
            -28.56,
            -29.58,
            -29.99,
            -30.47,
            -31.35,
            -32.11,
            -33.07,
            -33.44,
            -34.4,
            -35.21,
            -35.7,
            -36.15,
            -37.02,
            -37.97,
            -38.89,
            -39.71,
            -40.25,
            -41.22,
            -42.1,
            -43.14,
            -44.06,
            -44.94,
            -45.99,
            -46.84,
            -47.87,
            -48.87,
            -49.9,
            -50.93,
            -51.89,
            -52.91,
            -53.93,
            -54.52,
            -54.15,
            -53.78,
            -53.4,
            -53.03,
            -52.59,
            -52.17,
            -51.8,
            -51.4,
            -51.03,
            -50.61,
            -50.18,
            -49.79,
            -49.39,
            -49.01,
            -48.58,
            -48.18,
            -47.8,
            -47.4,
            -47.01,
            -46.6,
            -46.16,
            -45.78,
            -45.42,
            -45.0,
            -44.6,
            -44.19,
            -43.79,
            -43.41,
            -43.01,
            -42.57,
            -42.18,
            -41.82,
            -41.39,
            -40.95,
            -40.53,
            -40.11,
            -39.71,
            -39.3,
            -38.88,
            -38.47,
            -38.07,
            -37.62,
            -37.22,
            -36.79,
            -36.36,
            -35.95,
            -35.4,
            -34.86,
            -34.41,
            -34.0,
            -33.57,
            -33.15,
            -32.75,
            -32.28,
            -31.86,
            -31.44,
            -31.03,
            -30.62,
            -30.19,
            -29.83,
            -29.53,
            -28.98,
            -28.6,
            -28.21,
            -27.78,
            -27.41,
            -27.12,
            -26.71,
            -26.49,
            -26.19,
            -25.72,
            -25.43,
            -25.12,
            -24.81,
            -24.44,
            -24.03,
            -23.59,
            -23.13,
            -22.73,
            -22.29,
            -21.84,
            -21.38,
            -20.93,
            -20.45,
            -20.03,
            -19.5,
            -18.98,
            -18.45,
            -17.95,
            -17.44,
            -16.9,
            -16.41,
            -15.82,
            -15.3,
            -14.76,
            -14.2,
            -13.66,
            -13.13,
            -12.02,
            -11.46,
            -10.33,
            -9.79,
            -8.72,
            -8.15,
            -7.06,
            -6.51,
            -5.44,
            -4.88,
            -4.34,
            -3.73,
            -2.67,
            -2.18,
            -1.05,
            -0.57,
            -0.02,
            0.52,
            1.02,
            1.6,
            2.13,
            2.62,
            3.14,
            3.7,
            4.2,
            4.7,
            5.27,
            5.78,
            6.29,
            6.86,
            7.33,
            7.84,
            8.37,
            8.899999,
            9.49,
            9.95,
            11.23,
            11.9,
            12.45,
            12.98,
            13.58,
            14.63,
            15.18,
            15.71,
            16.27,
            16.82,
            17.97,
            18.53,
            19.66,
            20.19,
            20.81,
            21.95,
            23.06,
            23.69,
            24.81,
            26.03,
            26.62,
            27.81,
            28.98,
            30.22,
            31.44,
            32.66,
            33.92,
            35.16,
            36.35,
            37.71,
            38.95,
            40.28,
            41.54,
            42.19,
            43.5,
            43.85,
            43.69,
            43.27,
            42.88,
            42.48,
            42.06,
            41.67,
            41.29,
            40.78,
            40.43,
            40.02,
            39.61,
            39.2,
            38.81,
            38.4,
            37.93,
            37.54,
            37.15,
            36.83,
            36.33,
            35.95,
            35.57,
            35.08,
            34.75,
            34.31,
            33.94,
            33.51,
            33.09,
            32.7,
            32.31,
            31.92,
            31.52,
            31.16,
            30.8,
            30.37,
            30.03,
            29.6,
            29.24,
            28.9,
            28.52,
            28.22,
            27.82,
            27.49,
            27.21,
            26.91,
            26.62,
            26.24,
            26.03,
            25.76,
            25.03,
            24.81,
            24.53,
            24.03,
            23.94,
            23.33,
            23.31,
            22.74,
            22.39,
            22.03,
            21.63,
            21.34,
            20.95,
            20.55,
            20.11,
            19.74,
            19.37,
            19.04,
            18.62,
            18.27,
            17.82,
            17.43,
            17.01,
            16.61,
            16.21,
            15.82,
            15.4,
            14.99,
            14.55,
            14.11,
            13.7,
            12.82,
            12.45,
            11.64,
            11.21,
            10.73,
            10.31,
            9.88,
            9.46,
            8.57,
            8.15,
            7.25,
            6.85,
            5.97,
            5.49,
            4.6,
            4.17,
            3.3,
            2.84,
            1.92,
            1.5,
            0.58,
            0.16,
            -0.74,
            -1.17,
            -2.06,
            -2.54,
            -3.39,
            -3.86,
            -4.73,
            -5.2,
            -6.04,
            -6.47,
            -7.32,
            -7.79,
            -8.68,
            -9.08,
            -9.99,
            -10.42,
            -11.33,
            -11.74,
            -12.65,
            -13.11,
            -14.03,
            -14.63,
            -15.65,
            -16.11,
            -16.51,
            -17.01,
            -17.96,
            -18.42,
            -19.34,
            -19.79,
            -20.27,
            -21.25,
            -21.7,
            -22.68,
            -23.19,
            -23.65,
            -24.65,
            -25.62,
            -26.17,
            -27.14,
            -28.14,
            -28.63,
            -29.65,
            -30.71,
            -31.17,
            -32.2,
            -33.28,
            -33.79,
            -34.31,
            -35.36,
            -36.47,
            -37.48,
            -38.0,
            -39.08,
            -40.19,
            -41.22,
            -41.86,
            -42.89,
            -43.46,
            -44.57,
            -45.67,
            -46.86,
            -47.98,
            -49.1,
            -50.26,
            -51.41,
            -52.58,
            -53.7,
            -54.82,
            -55.18,
            -54.86,
            -54.48,
            -54.15,
            -53.78,
            -53.41,
            -53.11,
            -52.74,
            -52.37,
            -52.04,
            -51.73,
            -51.35,
            -50.98,
            -50.64,
            -50.3,
            -49.97,
            -49.61,
            -49.23,
            -48.92,
            -48.54,
            -48.22,
            -47.84,
            -47.49,
            -47.16,
            -46.8,
            -46.36,
            -45.88,
            -45.44,
            -45.11,
            -44.74,
            -44.4,
            -44.07,
            -43.7,
            -43.32,
            -42.99,
            -42.63,
            -42.28,
            -41.9,
            -41.53,
            -41.19,
            -40.79,
            -40.5,
            -40.14,
            -39.75,
            -39.35,
            -39.08,
            -38.64,
            -38.28,
            -37.93,
            -37.57,
            -37.23,
            -36.85,
            -36.47,
            -36.12,
            -35.73,
            -35.36,
            -35.0,
            -34.63,
            -34.28,
            -33.89,
            -33.52,
            -33.2,
            -32.78,
            -32.4,
            -32.04,
            -31.72,
            -31.34,
            -31.1,
            -30.64,
            -30.48,
            -30.13,
            -29.79,
            -29.44,
            -29.1,
            -28.76,
            -28.42,
            -28.03,
            -27.71,
            -27.44,
            -27.21,
            -26.62,
            -26.4,
            -26.09,
            -25.44,
            -25.06,
            -24.69,
            -24.32,
            -23.95,
            -23.54,
            -23.16,
            -22.79,
            -22.43,
            -22.03,
            -21.62,
            -21.13,
            -20.71,
            -20.29,
            -19.41,
            -18.93,
            -18.44,
            -18.02,
            -17.56,
            -17.14,
            -16.63,
            -16.14,
            -15.68,
            -15.26,
            -14.25,
            -13.79,
            -12.83,
            -12.4,
            -11.42,
            -10.93,
            -9.78,
            -9.140001,
            -8.17,
            -7.7,
            -6.76,
            -6.29,
            -5.28,
            -4.88,
            -3.86,
            -3.44,
            -2.41,
            -1.99,
            -0.99,
            -0.56,
            0.43,
            0.82,
            1.81,
            2.28,
            3.21,
            3.7,
            4.64,
            5.06,
            5.99,
            6.48,
            7.4,
            7.89,
            8.859999,
            9.310001,
            10.28,
            10.79,
            11.7,
            12.16,
            13.18,
            13.67,
            14.11,
            15.07,
            15.59,
            16.07,
            17.11,
            18.02,
            18.55,
            19.54,
            20.57,
            21.09,
            22.14,
            23.14,
            24.17,
            24.64,
            25.68,
            26.71,
            27.79,
            28.86,
            29.95,
            31.03,
            32.08,
            33.16,
            34.21,
            35.31,
            36.47,
            37.53,
            38.64,
            39.73,
            40.87,
            42.05,
            42.63,
            44.1,
            44.3,
            44.23,
            43.89,
            43.54,
            43.14,
            42.78,
            42.33,
            41.96,
            41.54,
            41.11,
            40.76,
            40.33,
            39.95,
            39.58,
            39.16,
            38.76,
            38.38,
            37.93,
            37.58,
            37.14,
            36.77,
            36.36,
            35.93,
            35.54,
            35.15,
            34.77,
            34.35,
            33.99,
            33.62,
            33.25,
            32.85,
            32.44,
            32.11,
            31.73,
            31.38,
            31.04,
            30.72,
            30.33,
            29.99,
            29.64,
            29.3,
            28.95,
            28.64,
            28.44,
            28.11,
            27.79,
            27.54,
            27.31,
            26.87,
            26.56,
            26.29,
            26.03,
            25.58,
            25.54,
            25.03,
            24.95,
            24.38,
            24.05,
            23.72,
            23.38,
            22.96,
            22.62,
            22.24,
            21.91,
            21.53,
            21.15,
            20.79,
            20.39,
            20.05,
            19.64,
            19.22,
            18.85,
            18.42,
            18.07,
            17.66,
            17.25,
            16.84,
            16.43,
            15.99,
            15.67,
            15.24,
            14.84,
            14.44,
            14.1,
            13.23,
            12.81,
            12.0,
            11.54,
            10.56,
            10.01,
            9.58,
            9.100001,
            8.310001,
            7.92,
            7.05,
            6.62,
            5.74,
            5.29,
            4.43,
            4.0,
            3.1,
            2.67,
            1.78,
            1.34,
            0.46,
            0.02,
            -0.85,
            -1.29,
            -2.19,
            -2.61,
            -3.52,
            -3.95,
            -4.83,
            -5.27,
            -6.18,
            -6.66,
            -7.53,
            -7.95,
            -8.859999,
            -9.3,
            -9.72,
            -10.64,
            -11.13,
            -11.54,
            -12.49,
            -12.92,
            -13.84,
            -14.31,
            -14.73,
            -15.69,
            -16.14,
            -16.59,
            -17.57,
            -17.99,
            -18.47,
            -19.4,
            -19.91,
            -20.45,
            -21.34,
            -22.29,
            -22.8,
            -23.75,
            -24.73,
            -25.23,
            -26.21,
            -27.22,
            -27.7,
            -28.72,
            -29.71,
            -30.25,
            -30.75,
            -31.77,
            -32.76,
            -33.29,
            -33.81,
            -34.79,
            -35.86,
            -36.89,
            -37.43,
            -38.53,
            -39.74,
            -40.95,
            -42.02,
            -42.51,
            -43.08,
            -44.15,
            -45.21,
            -46.29,
            -47.37,
            -48.49,
            -49.64,
            -50.69,
            -51.85,
            -52.97,
            -54.14,
            -55.15,
            -55.41,
            -55.09,
            -54.63,
            -54.24,
            -53.85,
            -53.43,
            -53.06,
            -52.65,
            -52.27,
            -51.91,
            -51.52,
            -51.14,
            -50.7,
            -50.31,
            -49.94,
            -49.57,
            -49.18,
            -48.8,
            -48.41,
            -47.95,
            -47.59,
            -47.21,
            -46.81,
            -46.42,
            -46.01,
            -45.69,
            -45.21,
            -44.87,
            -44.48,
            -44.04,
            -43.7,
            -43.24,
            -42.87,
            -42.44,
            -42.06,
            -41.62,
            -41.29,
            -40.86,
            -40.5,
            -40.03,
            -39.63,
            -39.27,
            -38.78,
            -38.47,
            -38.08,
            -37.61,
            -37.24,
            -36.81,
            -36.4,
            -36.02,
            -35.56,
            -35.21,
            -34.78,
            -34.35,
            -33.95,
            -33.55,
            -33.15,
            -32.74,
            -32.45,
            -31.99,
            -31.65,
            -31.22,
            -30.79,
            -30.38,
            -30.11,
            -29.8,
            -29.45,
            -29.23,
            -28.85,
            -28.55,
            -28.3,
            -27.6,
            -27.25,
            -26.87,
            -26.53,
            -26.03,
            -25.69,
            -25.25,
            -24.83,
            -24.41,
            -23.97,
            -23.52,
            -23.1,
            -22.55,
            -22.06,
            -21.61,
            -21.08,
            -20.5,
            -20.03,
            -19.54,
            -19.06,
            -18.49,
            -18.01,
            -17.47,
            -16.95,
            -16.43,
            -15.84,
            -15.34,
            -14.83,
            -14.25,
            -13.74,
            -13.1,
            -12.69,
            -12.12,
            -11.04,
            -10.5,
            -9.42,
            -8.859999,
            -7.75,
            -7.2,
            -6.7,
            -6.08,
            -5.05,
            -4.55,
            -3.41,
            -2.86,
            -2.28,
            -1.73,
            -1.22,
            -0.17,
            0.4,
            1.48,
            2.05,
            3.11,
            3.72,
            4.72,
            5.36,
            6.48,
            6.89,
            8.020001,
            8.54,
            9.12,
            10.22,
            10.72,
            11.38,
            12.4,
            12.99,
            13.56,
            14.69,
            15.85,
            16.37,
            17.39,
            18.63,
            19.19,
            20.3,
            21.6,
            22.68,
            23.36,
            23.87,
            25.27,
            26.03,
            27.21,
            28.42,
            29.74,
            30.88,
            32.11,
            32.7,
            33.98,
            35.22,
            36.44,
            37.74,
            38.39,
            39.0,
            40.22,
            41.47,
            42.72,
            43.46,
            44.61,
            45.94,
            47.15,
            47.84,
            49.17,
            50.52,
            51.21,
            52.66,
            53.27,
            54.6,
            55.9,
            56.6,
            57.85,
            59.17,
            60.47,
            61.16,
            62.44,
            63.97,
            64.7,
            65.58,
            66.32,
            67.09,
            67.95,
            69.25,
            69.66001,
            69.76,
            69.34,
            68.86,
            68.36,
            67.83,
            67.33,
            66.87,
            66.38,
            65.93,
            65.45,
            64.98001,
            64.49,
            64.08,
            63.54,
            63.07,
            62.65,
            62.17,
            61.73,
            61.24,
            60.82,
            60.46,
            59.97,
            59.62,
            59.23,
            58.88,
            58.44,
            58.11,
            57.83,
            57.58,
            57.31,
            56.97,
            56.75,
            56.38,
            56.18,
            55.89,
            55.22,
            54.82,
            54.41,
            53.95,
            53.59,
            53.17,
            52.77,
            52.35,
            51.86,
            51.35,
            50.95,
            50.43,
            49.97,
            49.51,
            49.07,
            48.56,
            48.09,
            47.6,
            47.28,
            46.83,
            46.3,
            45.88,
            45.43,
            44.97,
            44.51,
            44.01,
            43.56,
            43.11,
            42.64,
            42.22,
            41.73,
            41.22,
            40.77,
            40.31,
            39.82,
            39.34,
            38.82,
            38.35,
            37.84,
            37.34,
            36.34,
            35.82,
            34.8,
            34.28,
            33.05,
            32.44,
            31.94,
            31.33,
            30.19,
            29.71,
            28.6,
            28.08,
            26.9,
            26.33,
            25.8,
            24.6,
            24.05,
            23.51,
            22.31,
            21.76,
            21.17,
            19.97,
            18.76,
            18.19,
            17.01,
            15.81,
            15.17,
            13.96,
            12.76,
            11.59,
            10.98,
            9.729999,
            8.57,
            7.34,
            6.78,
            5.48,
            4.83,
            3.58,
            2.82,
            2.02,
            1.43,
            0.8,
            -0.4,
            -1.65,
            -2.87,
            -4.1,
            -5.36,
            -6.04,
            -7.34,
            -8.560001,
            -9.850001,
            -10.48,
            -11.75,
            -13.04,
            -14.33,
            -15.67,
            -17.0,
            -18.28,
            -19.67,
            -21.02,
            -22.42,
            -23.72,
            -25.14,
            -25.88,
            -27.3,
            -28.07,
            -28.85,
            -29.64,
            -30.36,
            -32.15,
            -32.98,
            -33.84,
            -34.67,
            -36.04,
            -36.85,
            -37.75,
            -38.66,
            -39.0
        ],
        "force": [
            3.625776,
            7.186806,
            9.258678,
            11.07157,
            13.92039,
            17.15769,
            18.19363,
            19.35905,
            22.27262,
            25.70416,
            27.77603,
            29.58892,
            32.95572,
            34.89809,
            37.35844,
            39.88354,
            42.66761,
            46.42288,
            48.62424,
            50.43713,
            54.38664,
            56.32902,
            58.40089,
            62.09142,
            63.9043,
            65.84668,
            69.47246,
            71.15585,
            73.09824,
            76.40028,
            77.88943,
            79.70232,
            83.13387,
            83.58709,
            85.39997,
            88.70202,
            90.45016,
            91.55084,
            95.04713,
            96.47154,
            97.70171,
            100.68,
            102.1692,
            103.3994,
            106.2482,
            107.7373,
            108.9028,
            111.4926,
            112.5933,
            113.6292,
            116.4781,
            117.514,
            118.7442,
            121.334,
            122.5642,
            124.8303,
            126.0605,
            127.2259,
            129.6862,
            130.5279,
            131.9523,
            134.2832,
            135.4486,
            136.873,
            139.0744,
            139.9809,
            142.3764,
            143.6066,
            145.2253,
            145.8727,
            147.2971,
            148.5921,
            150.146,
            151.4409,
            152.8653,
            153.5128,
            152.2826,
            152.6711,
            148.7216,
            144.3188,
            139.7866,
            137.5205,
            135.3191,
            132.9883,
            130.9164,
            126.19,
            123.1469,
            120.2981,
            117.3198,
            115.2479,
            113.1113,
            110.9099,
            108.838,
            106.5719,
            104.5648,
            102.3634,
            100.0973,
            98.02544,
            95.75933,
            93.62272,
            91.55084,
            89.54372,
            87.27761,
            85.14099,
            82.93963,
            80.86775,
            78.60165,
            76.65926,
            74.52264,
            72.32128,
            70.24941,
            68.17754,
            66.17041,
            64.09854,
            61.96192,
            60.01954,
            58.01242,
            54.06291,
            52.12053,
            49.98391,
            48.04153,
            45.90491,
            43.96254,
            41.82592,
            39.81879,
            37.81166,
            35.80454,
            32.24351,
            30.17164,
            28.42349,
            24.86246,
            23.11432,
            22.01364,
            19.87702,
            18.12888,
            16.51023,
            12.88445,
            11.46004,
            10.81258,
            7.963758,
            5.697648,
            5.114934,
            3.107808,
            0.776952,
            -0.194238,
            -2.525094,
            -5.956632,
            -7.510536,
            -9.258678,
            -12.88445,
            -14.69734,
            -16.57498,
            -20.39499,
            -22.53161,
            -24.3445,
            -28.55299,
            -30.62486,
            -32.76147,
            -37.1642,
            -39.04184,
            -41.2432,
            -43.7683,
            -46.35814,
            -48.68899,
            -52.50901,
            -54.58088,
            -56.32902,
            -59.89005,
            -60.667,
            -64.09854,
            -65.78194,
            -67.65957,
            -70.89687,
            -72.58027,
            -74.13417,
            -77.63046,
            -79.11961,
            -80.9325,
            -84.1698,
            -85.8532,
            -87.4071,
            -90.45016,
            -92.13356,
            -93.81696,
            -96.40679,
            -98.02544,
            -100.1621,
            -101.7807,
            -103.1404,
            -105.8597,
            -107.2841,
            -110.1329,
            -111.2984,
            -113.6292,
            -115.3774,
            -117.514,
            -118.7442,
            -120.6865,
            -122.111,
            -123.3411,
            -125.6072,
            -126.7079,
            -127.6791,
            -129.9452,
            -131.3049,
            -133.3768,
            -134.6717,
            -136.4198,
            -137.5205,
            -139.9161,
            -141.211,
            -143.6714,
            -144.6426,
            -146.9087,
            -147.9446,
            -150.0165,
            -151.0524,
            -153.0595,
            -153.2538,
            -151.1819,
            -151.5704,
            -152.4768,
            -154.6134,
            -155.6494,
            -156.6853,
            -157.6565,
            -158.3687,
            -160.2464,
            -160.9586,
            -161.606,
            -157.527,
            -159.3399,
            -155.5199,
            -152.8006,
            -150.146,
            -148.2683,
            -146.2612,
            -144.3836,
            -142.247,
            -140.3693,
            -138.4917,
            -136.6141,
            -134.8012,
            -131.1754,
            -129.492,
            -127.7439,
            -125.9957,
            -124.0533,
            -122.3699,
            -120.4923,
            -118.5499,
            -116.8018,
            -113.2408,
            -111.5574,
            -109.874,
            -108.3201,
            -106.6367,
            -103.1404,
            -101.3922,
            -99.77358,
            -98.02544,
            -96.40679,
            -92.91051,
            -91.35661,
            -89.54372,
            -88.05456,
            -86.24167,
            -84.62302,
            -83.00437,
            -79.63758,
            -78.08368,
            -76.27079,
            -73.16298,
            -71.35009,
            -69.86093,
            -68.30703,
            -66.62363,
            -63.58057,
            -62.09142,
            -60.53751,
            -59.04835,
            -57.75343,
            -56.13478,
            -54.71037,
            -53.15647,
            -51.66731,
            -50.1134,
            -48.5595,
            -46.94085,
            -45.19271,
            -43.70355,
            -42.0849,
            -40.59574,
            -38.8476,
            -37.42319,
            -35.80454,
            -34.12114,
            -32.43774,
            -28.81197,
            -26.99908,
            -25.12145,
            -21.43093,
            -19.61804,
            -17.7404,
            -14.24412,
            -12.43123,
            -10.68309,
            -7.12206,
            -5.309172,
            -3.496284,
            -0.841698,
            -0.841698,
            2.58984,
            4.53222,
            6.4746,
            9.582408,
            11.2658,
            12.04276,
            14.95633,
            15.73328,
            17.15769,
            19.61804,
            20.78347,
            21.8194,
            25.57467,
            27.38756,
            29.39468,
            32.69673,
            34.50962,
            36.19301,
            39.88354,
            41.82592,
            43.70355,
            45.77542,
            47.84729,
            49.78967,
            51.73206,
            53.73918,
            55.74631,
            57.81818,
            59.69581,
            61.5087,
            63.51583,
            65.39346,
            69.21347,
            70.83212,
            72.58027,
            74.39315,
            76.1413,
            77.75995,
            79.50809,
            81.25623,
            82.93963,
            84.42879,
            86.24167,
            87.79558,
            89.28474,
            90.96813,
            92.52203,
            94.20543,
            95.75933,
            97.83121,
            99.12613,
            100.939,
            102.6872,
            104.2411,
            105.9892,
            107.4136,
            108.9028,
            110.5862,
            112.3991,
            114.0177,
            115.5716,
            116.996,
            118.5499,
            120.2981,
            121.7872,
            123.3411,
            124.7655,
            126.2547,
            127.9381,
            129.492,
            130.9812,
            132.2113,
            133.83,
            135.2544,
            136.6788,
            138.1032,
            139.4629,
            140.8226,
            142.247,
            143.4124,
            144.5778,
            145.808,
            148.1389,
            146.326,
            148.4626,
            150.405,
            151.3114,
            152.2178,
            153.7717,
            153.8365,
            155.7141,
            156.6206,
            156.9443,
            157.3328,
            158.045,
            158.045,
            157.0738,
            155.6494,
            154.4192,
            152.9948,
            152.7358,
            151.7646,
            151.3761,
            151.1819,
            149.5633,
            148.6568,
            148.3331,
            146.7144,
            146.5202,
            146.0022,
            145.4195,
            144.1893,
            143.8009,
            143.6066,
            143.6714,
            143.0239,
            142.3764,
            142.1822,
            140.6931,
            139.9161,
            138.9449,
            136.6141,
            134.6717,
            132.5351,
            130.3337,
            128.3266,
            126.19,
            124.1828,
            121.9815,
            120.2981,
            116.2191,
            114.2119,
            112.1401,
            110.3272,
            108.3201,
            106.0539,
            104.2411,
            102.1692,
            100.2916,
            98.41392,
            96.60103,
            94.7234,
            92.58678,
            90.90338,
            88.89626,
            87.01862,
            85.14099,
            83.39285,
            81.45047,
            79.83182,
            77.88943,
            76.1413,
            74.19891,
            72.51552,
            70.83212,
            68.88975,
            67.20634,
            65.52295,
            63.58057,
            62.02667,
            60.40802,
            58.59513,
            56.78224,
            55.16359,
            53.54494,
            51.86155,
            50.2429,
            48.36526,
            46.81136,
            45.19271,
            43.63881,
            42.02015,
            40.27201,
            38.45913,
            36.58149,
            34.57436,
            32.30825,
            30.88384,
            29.65367,
            26.61061,
            25.31569,
            23.89127,
            21.30143,
            20.45974,
            18.77634,
            16.96345,
            15.66853,
            12.88445,
            11.84852,
            10.42411,
            8.74071,
            7.899012,
            5.762394,
            4.53222,
            3.107808,
            2.071872,
            0.776952,
            -0.97119,
            -2.848824,
            -4.078998,
            -6.409854,
            -7.510536,
            -9.647154,
            -10.81258,
            -13.07869,
            -14.24412,
            -16.38074,
            -17.41667,
            -18.45261,
            -20.65397,
            -21.8194,
            -23.89127,
            -25.12145,
            -27.32281,
            -28.55299,
            -30.8191,
            -31.91978,
            -32.95572,
            -35.28657,
            -36.32251,
            -38.39438,
            -39.23608,
            -39.62455,
            -42.53812,
            -43.70355,
            -45.71067,
            -46.81136,
            -47.97679,
            -49.01272,
            -49.85442,
            -51.86155,
            -52.70324,
            -54.58088,
            -55.42258,
            -58.01242,
            -58.91886,
            -60.47276,
            -61.5087,
            -62.93311,
            -63.77481,
            -65.52295,
            -66.4294,
            -67.20634,
            -69.21347,
            -69.73145,
            -71.54433,
            -72.51552,
            -73.6162,
            -74.52264,
            -75.55858,
            -77.50096,
            -78.47215,
            -79.83182,
            -80.54402,
            -82.6159,
            -83.71658,
            -85.78845,
            -86.88913,
            -87.86032,
            -89.47897,
            -90.57965,
            -92.71627,
            -93.81696,
            -96.08306,
            -97.119,
            -97.50748,
            -99.90308,
            -100.939,
            -103.3346,
            -104.3706,
            -106.6367,
            -106.8956,
            -110.3919,
            -111.4926,
            -113.953,
            -114.8594,
            -116.2838,
            -117.4492,
            -118.6794,
            -120.6865,
            -121.7225,
            -123.7943,
            -124.895,
            -126.1252,
            -127.4201,
            -129.3625,
            -130.3984,
            -131.3049,
            -133.1825,
            -133.571,
            -136.4198,
            -137.4558,
            -139.1392,
            -140.1104,
            -140.952,
            -141.8585,
            -143.6714,
            -144.6426,
            -145.29,
            -147.0382,
            -147.7504,
            -148.5273,
            -150.0165,
            -150.7287,
            -152.1531,
            -152.8006,
            -152.6711,
            -154.225,
            -155.3257,
            -156.0379,
            -156.2321,
            -157.0738,
            -157.268,
            -157.1385,
            -156.2321,
            -156.6853,
            -157.268,
            -156.4911,
            -156.5558,
            -156.6853,
            -156.5558,
            -156.5558,
            -155.1314,
            -155.2609,
            -155.0019,
            -154.6782,
            -152.9948,
            -152.6063,
            -152.0236,
            -151.6351,
            -150.2107,
            -149.9517,
            -149.3043,
            -148.7863,
            -147.3619,
            -146.9087,
            -146.7144,
            -146.1317,
            -145.29,
            -143.6714,
            -143.2182,
            -142.3764,
            -141.8585,
            -140.3046,
            -139.7219,
            -139.3981,
            -138.8802,
            -137.5205,
            -136.6141,
            -135.9019,
            -135.2544,
            -132.2113,
            -129.6862,
            -128.3266,
            -125.2188,
            -123.4059,
            -121.7225,
            -120.3628,
            -118.6794,
            -117.0608,
            -115.5716,
            -113.6292,
            -111.3631,
            -109.356,
            -108.0611,
            -106.4424,
            -104.9533,
            -103.5289,
            -101.975,
            -100.3563,
            -98.93188,
            -97.31324,
            -95.82408,
            -94.46442,
            -92.97526,
            -91.55084,
            -90.25592,
            -88.63728,
            -87.08337,
            -84.1698,
            -82.93963,
            -81.38572,
            -79.89656,
            -78.73113,
            -77.24198,
            -75.62333,
            -74.39315,
            -72.904,
            -71.54433,
            -70.24941,
            -68.88975,
            -67.40059,
            -66.17041,
            -64.61651,
            -63.1921,
            -61.89717,
            -60.53751,
            -59.1131,
            -57.88292,
            -56.84699,
            -55.42258,
            -54.12766,
            -52.96223,
            -51.66731,
            -50.50188,
            -49.01272,
            -47.84729,
            -45.38695,
            -44.28626,
            -43.12083,
            -41.69642,
            -39.30082,
            -38.07065,
            -36.96997,
            -35.6103,
            -34.31538,
            -33.14995,
            -31.85503,
            -30.43062,
            -29.00621,
            -27.77603,
            -26.54586,
            -23.89127,
            -22.53161,
            -21.30143,
            -20.00651,
            -18.77634,
            -17.41667,
            -16.31599,
            -15.28006,
            -14.04988,
            -12.62547,
            -11.3953,
            -10.03563,
            -8.934948,
            -7.76952,
            -6.539346,
            -5.309172,
            -4.273236,
            -1.877634,
            -0.64746,
            1.035936,
            1.359666,
            3.302046,
            4.467474,
            5.762394,
            6.863076,
            7.963758,
            9.970884,
            11.00682,
            12.62547,
            13.40242,
            14.89158,
            15.15056,
            18.19363,
            18.77634,
            20.20075,
            22.20788,
            23.24381,
            25.38043,
            26.35162,
            27.32281,
            29.20045,
            30.17164,
            31.85503,
            32.63198,
            34.25063,
            35.09233,
            36.77573,
            37.74692,
            39.43031,
            40.20727,
            42.02015,
            42.73236,
            44.15677,
            44.93372,
            46.42288,
            47.32933,
            49.01272,
            49.85442,
            51.21408,
            52.12053,
            53.4802,
            54.06291,
            55.48732,
            56.32902,
            57.17072,
            58.46564,
            59.24259,
            60.01954,
            61.5087,
            62.09142,
            63.77481,
            64.55177,
            66.10567,
            67.01211,
            67.85381,
            69.86093,
            70.05518,
            71.73857,
            72.904,
            74.00468,
            75.10536,
            76.1413,
            77.43622,
            78.66639,
            80.67352,
            80.86775,
            83.13387,
            84.1698,
            85.59422,
            86.82439,
            88.24879,
            89.28474,
            90.32067,
            91.35661,
            92.97526,
            94.52916,
            95.17662,
            96.66578,
            98.41392,
            99.25562,
            101.457,
            101.9102,
            104.1116,
            104.8238,
            106.2482,
            107.2841,
            108.6438,
            109.6797,
            111.0394,
            111.7516,
            112.7228,
            113.7587,
            114.9241,
            115.6364,
            116.6723,
            117.6435,
            117.8377,
            119.5211,
            120.2981,
            120.2981,
            121.9815,
            122.8879,
            122.6937,
            124.4418,
            124.9598,
            125.8015,
            126.4489,
            127.0317,
            128.4561,
            128.0676,
            129.6215,
            130.269,
            131.1754,
            130.9812,
            132.2761,
            133.1825,
            133.571,
            134.0242,
            133.83,
            134.8012,
            134.9307,
            135.8371,
            135.8371,
            136.6141,
            136.6788,
            137.2615,
            137.0025,
            137.65,
            137.1968,
            137.7147,
            137.7147,
            137.909,
            137.2615,
            137.5205,
            136.8083,
            137.0025,
            136.2256,
            136.6788,
            135.7724,
            132.2761,
            128.8445,
            125.154,
            122.4994,
            119.8448,
            117.4492,
            114.7299,
            112.5285,
            110.0682,
            107.4136,
            105.018,
            102.5577,
            100.0326,
            97.63697,
            95.30611,
            92.84576,
            90.45016,
            87.98981,
            85.78845,
            83.3281,
            81.06199,
            78.66639,
            76.40028,
            74.13417,
            71.86806,
            69.60195,
            67.40059,
            65.06973,
            62.73887,
            60.79649,
            58.59513,
            56.39376,
            54.25715,
            52.12053,
            49.98391,
            47.78255,
            45.77542,
            43.83304,
            41.69642,
            39.62455,
            37.61743,
            35.73979,
            33.73267,
            32.04927,
            30.17164,
            28.35875,
            26.67535,
            24.66823,
            22.92008,
            21.36618,
            20.00651,
            19.22956,
            15.73328,
            14.04988,
            12.43123,
            10.81258,
            9.841392,
            7.057314,
            5.632902,
            4.53222,
            2.58984,
            1.748142,
            -0.258984,
            -0.776952,
            -3.107808,
            -4.337982,
            -5.697648,
            -6.992568,
            -8.352234,
            -9.452916,
            -11.00682,
            -12.30174,
            -13.72615,
            -14.95633,
            -16.31599,
            -17.54617,
            -18.97058,
            -20.20075,
            -21.68991,
            -23.11432,
            -24.53873,
            -25.83365,
            -27.38756,
            -28.81197,
            -29.39468,
            -32.43774,
            -33.79741,
            -34.96284,
            -35.93403,
            -38.8476,
            -40.53099,
            -41.95541,
            -42.53812,
            -44.99847,
            -46.35814,
            -48.30051,
            -49.4012,
            -51.66731,
            -52.76799,
            -54.51613,
            -55.61681,
            -57.17072,
            -58.07716,
            -59.1131,
            -61.24972,
            -61.76768,
            -63.9043,
            -64.746,
            -66.23516,
            -67.2711,
            -69.34296,
            -70.44365,
            -72.12704,
            -73.16298,
            -74.65214,
            -75.81757,
            -76.8535,
            -77.88943,
            -79.70232,
            -80.86775,
            -83.00437,
            -84.23454,
            -85.78845,
            -87.08337,
            -88.70202,
            -89.73795,
            -92.1983,
            -92.71627,
            -94.78815,
            -95.88882,
            -97.50748,
            -98.6729,
            -100.3563,
            -101.5217,
            -103.5936,
            -104.0468,
            -106.1834,
            -107.2194,
            -108.6438,
            -109.4855,
            -111.4926,
            -111.9458,
            -113.8235,
            -114.7947,
            -115.0536,
            -116.8665,
            -117.6435,
            -117.9025,
            -119.7801,
            -120.4923,
            -120.816,
            -122.1757,
            -122.9527,
            -123.6001,
            -124.3771,
            -125.0245,
            -125.8015,
            -126.4489,
            -127.6791,
            -128.2618,
            -128.715,
            -129.8805,
            -129.751,
            -131.1754,
            -131.5639,
            -131.3696,
            -132.3408,
            -133.4415,
            -133.3768,
            -133.7652,
            -133.7652,
            -134.4774,
            -134.8659,
            -135.0602,
            -134.9954,
            -135.6429,
            -135.3191,
            -135.6429,
            -135.7076,
            -135.3191,
            -135.5134,
            -134.6069,
            -135.2544,
            -134.4127,
            -134.4127,
            -134.2185,
            -133.2473,
            -133.1825,
            -132.1466,
            -131.8229,
            -130.7869,
            -130.7222,
            -129.2978,
            -126.6432,
            -124.0533,
            -121.593,
            -119.3269,
            -116.8665,
            -114.4062,
            -112.0106,
            -109.7445,
            -107.2841,
            -104.9533,
            -102.4282,
            -100.0973,
            -97.89595,
            -95.62984,
            -93.36373,
            -91.16237,
            -88.70202,
            -86.63015,
            -84.42879,
            -82.16267,
            -79.89656,
            -77.82469,
            -75.75282,
            -73.42197,
            -71.28535,
            -69.08398,
            -66.88262,
            -64.94024,
            -62.80362,
            -60.34327,
            -58.2714,
            -56.39376,
            -54.51613,
            -52.57375,
            -50.63137,
            -48.68899,
            -46.81136,
            -44.80423,
            -42.86185,
            -41.11371,
            -39.04184,
            -37.22895,
            -35.35131,
            -33.53843,
            -31.72554,
            -29.39468,
            -27.38756,
            -24.60348,
            -22.07839,
            -20.20075,
            -18.38786,
            -16.31599,
            -14.5031,
            -12.75496,
            -11.00682,
            -8.870202,
            -7.186806,
            -5.373918,
            -3.496284,
            -1.812888,
            -0.388476,
            0.776952,
            3.2373,
            4.920696,
            6.733584,
            8.41698,
            9.776646,
            11.20106,
            12.62547,
            13.66141,
            15.02107,
            16.70447,
            17.99939,
            18.97058,
            20.33024,
            22.01364,
            23.63229,
            25.50992,
            26.99908,
            28.61773,
            30.36587,
            31.98452,
            33.40894,
            34.70386,
            36.12827,
            37.48793,
            38.8476,
            40.20727,
            41.63168,
            42.9266,
            44.35101,
            45.58118,
            46.74661,
            48.17102,
            49.4012,
            50.63137,
            51.7968,
            52.89748,
            53.28596,
            56.13478,
            56.78224,
            58.59513,
            60.08429,
            62.22091,
            63.51583,
            65.5877,
            66.49414,
            68.37177,
            69.86093,
            71.28535,
            72.12704,
            74.26366,
            75.75282,
            78.01893,
            79.70232,
            80.60877,
            82.03318,
            83.06911,
            84.55827,
            85.39997,
            87.01862,
            88.24879,
            89.8027,
            90.6444,
            92.3278,
            92.97526,
            94.91763,
            95.75933,
            97.44273,
            98.28443,
            99.90308,
            100.7448,
            102.4929,
            103.2699,
            104.9533,
            107.6078,
            109.097,
            110.3919,
            111.1041,
            112.4638,
            114.7299,
            115.1184,
            116.3486,
            116.737,
            118.1615,
            119.8448,
            120.2333,
            121.4635,
            122.6937,
            122.9527,
            124.1828,
            125.5425,
            126.4489,
            127.5496,
            128.6503,
            128.5856,
            129.1035,
            130.0747,
            130.8517,
            131.1107,
            131.8876,
            132.3408,
            132.4703,
            132.1466,
            131.7581,
            131.4991,
            131.4344,
            130.5279,
            130.6574,
            129.8805,
            128.8445,
            125.6072,
            122.4994,
            119.4564,
            116.737,
            113.5645,
            110.8452,
            107.9963,
            105.1475,
            102.2987,
            99.44986,
            96.73052,
            93.94645,
            91.09763,
            88.18405,
            85.59422,
            83.13387,
            80.28504,
            77.5657,
            74.91113,
            72.32128,
            69.66669,
            66.75313,
            64.55177,
            61.89717,
            59.24259,
            56.78224,
            54.25715,
            51.66731,
            49.20696,
            46.8761,
            44.28626,
            42.21439,
            39.75404,
            37.48793,
            35.09233,
            33.2147,
            30.75435,
            28.81197,
            26.67535,
            24.66823,
            22.6611,
            20.78347,
            19.22956,
            17.99939,
            15.66853,
            13.85564,
            12.36649,
            11.3953,
            7.76952,
            5.891886,
            4.661712,
            2.395602,
            1.94238,
            -0.64746,
            -0.906444,
            -3.56103,
            -5.309172,
            -6.927822,
            -8.352234,
            -9.906138,
            -11.46004,
            -13.27293,
            -14.5031,
            -16.1865,
            -17.41667,
            -18.97058,
            -20.65397,
            -22.07839,
            -23.56754,
            -25.12145,
            -26.93434,
            -28.42349,
            -30.10689,
            -31.66079,
            -33.34419,
            -34.89809,
            -35.80454,
            -37.22895,
            -38.91235,
            -41.76117,
            -42.9266,
            -45.51644,
            -47.0056,
            -47.97679,
            -49.46594,
            -50.69612,
            -51.92629,
            -54.71037,
            -55.42258,
            -57.68869,
            -59.04835,
            -60.86124,
            -61.96192,
            -64.03379,
            -65.19922,
            -67.07686,
            -67.9833,
            -70.05518,
            -70.96162,
            -72.77451,
            -74.13417,
            -76.07655,
            -77.04774,
            -79.05486,
            -79.83182,
            -81.90369,
            -82.93963,
            -84.94675,
            -85.8532,
            -88.05456,
            -89.09049,
            -90.90338,
            -91.93932,
            -93.94645,
            -95.17662,
            -96.79527,
            -97.50748,
            -99.44986,
            -100.8743,
            -102.3634,
            -103.3994,
            -105.4065,
            -106.3129,
            -108.0611,
            -109.2912,
            -110.0682,
            -110.5862,
            -112.5933,
            -112.9818,
            -114.2767,
            -115.3774,
            -115.8953,
            -117.3198,
            -118.1615,
            -119.1326,
            -119.7154,
            -119.9743,
            -120.7513,
            -122.1757,
            -122.1757,
            -123.6649,
            -124.1828,
            -125.0245,
            -125.413,
            -125.9957,
            -126.3194,
            -126.8374,
            -127.0317,
            -127.5496,
            -127.8734,
            -128.2618,
            -128.2618,
            -128.7798,
            -128.4561,
            -129.1035,
            -128.974,
            -129.2978,
            -128.5208,
            -129.1035,
            -128.5208,
            -128.6503,
            -128.0676,
            -127.6791,
            -127.5496,
            -126.9022,
            -126.8374,
            -125.8662,
            -124.8303,
            -124.636,
            -123.6649,
            -123.1469,
            -120.5571,
            -118.0967,
            -116.0896,
            -113.7587,
            -111.7516,
            -109.5502,
            -107.4784,
            -105.4065,
            -103.3346,
            -101.3275,
            -99.25562,
            -97.31324,
            -95.37086,
            -93.42847,
            -91.29186,
            -89.47897,
            -87.47185,
            -85.65896,
            -83.71658,
            -81.7742,
            -79.96131,
            -78.01893,
            -76.27079,
            -74.19891,
            -71.67382,
            -69.21347,
            -67.01211,
            -65.00498,
            -62.99786,
            -61.12022,
            -59.30733,
            -57.49445,
            -55.74631,
            -53.73918,
            -52.05578,
            -50.50188,
            -48.88323,
            -47.19983,
            -45.64593,
            -43.96254,
            -42.27914,
            -40.66049,
            -38.91235,
            -37.22895,
            -35.73979,
            -33.99165,
            -32.373,
            -30.8191,
            -29.20045,
            -27.25807,
            -25.63942,
            -23.89127,
            -22.14313,
            -20.39499,
            -18.64685,
            -17.0282,
            -15.3448,
            -13.66141,
            -12.23699,
            -10.42411,
            -8.870202,
            -7.381044,
            -5.762394,
            -4.273236,
            -2.719332,
            -1.230174,
            -0.388476,
            1.230174,
            2.007126,
            3.625776,
            5.050188,
            6.4746,
            7.963758,
            9.323424,
            10.81258,
            12.43123,
            13.46717,
            14.69734,
            15.3448,
            17.67566,
            18.51736,
            19.94177,
            22.79059,
            24.215,
            25.63942,
            27.12857,
            28.61773,
            30.04214,
            31.59605,
            32.89097,
            34.25063,
            35.35131,
            36.77573,
            37.2937,
            38.58862,
            40.14252,
            42.27914,
            43.12083,
            44.4805,
            45.45169,
            46.74661,
            47.7178,
            49.01272,
            49.78967,
            51.21408,
            52.05578,
            54.25715,
            54.96935,
            57.17072,
            58.20665,
            60.01954,
            61.05548,
            63.12735,
            64.29278,
            66.10567,
            66.81787,
            68.825,
            69.47246,
            71.47958,
            72.45078,
            74.13417,
            75.10536,
            76.91825,
            77.82469,
            79.76707,
            80.99725,
            82.42166,
            83.71658,
            85.20573,
            86.5654,
            88.18405,
            89.41422,
            91.22711,
            92.3278,
            94.07594,
            95.17662,
            97.05425,
            97.83121,
            99.83833,
            100.8095,
            102.4929,
            103.3346,
            104.9533,
            105.9892,
            107.1546,
            108.3848,
            108.7733,
            110.3272,
            110.9099,
            111.9458,
            112.9818,
            114.2767,
            115.1184,
            115.7658,
            117.1903,
            117.5787,
            119.0032,
            119.3916,
            120.4276,
            120.816,
            121.7225,
            121.852,
            122.7584,
            123.2764,
            123.6001,
            123.7296,
            123.9886,
            124.1828,
            124.5066,
            123.9238,
            123.9238,
            123.7296,
            123.5354,
            123.4706,
            122.9527,
            122.4994,
            122.0462,
            121.5282,
            120.4276,
            119.0679,
            116.2191,
            113.435,
            110.5862,
            107.9316,
            105.0828,
            102.2339,
            99.6441,
            96.79527,
            94.27018,
            91.68034,
            88.63728,
            86.30642,
            83.84607,
            81.06199,
            78.5369,
            76.07655,
            73.42197,
            70.83212,
            68.30703,
            65.71719,
            63.1921,
            60.79649,
            58.20665,
            55.8758,
            53.4802,
            50.9551,
            48.49475,
            46.1639,
            43.70355,
            41.56693,
            39.10658,
            36.90522,
            35.02759,
            32.82622,
            30.8191,
            28.81197,
            26.7401,
            24.79772,
            22.79059,
            20.78347,
            18.97058,
            17.93464,
            15.92752,
            14.17937,
            12.62547,
            11.3953,
            8.870202,
            7.251552,
            5.632902,
            4.596966,
            2.007126,
            1.94238,
            -0.712206,
            -0.841698,
            -3.88476,
            -5.50341,
            -7.057314,
            -8.481726,
            -10.22987,
            -11.71903,
            -13.27293,
            -14.76209,
            -16.44548,
            -17.80515,
            -19.29431,
            -20.84821,
            -22.14313,
            -23.56754,
            -25.12145,
            -26.7401,
            -28.03502,
            -29.65367,
            -31.46656,
            -32.89097,
            -34.50962,
            -35.99878,
            -37.48793,
            -39.04184,
            -40.53099,
            -42.27914,
            -43.50931,
            -44.73949,
            -47.07034,
            -48.23577,
            -50.9551,
            -52.12053,
            -55.0341,
            -56.39376,
            -57.68869,
            -58.72462,
            -60.73175,
            -62.15616,
            -64.16328,
            -65.19922,
            -67.07686,
            -68.11279,
            -70.05518,
            -70.96162,
            -72.77451,
            -73.81044,
            -75.62333,
            -76.27079,
            -78.21317,
            -79.05486,
            -80.73826,
            -81.70945,
            -83.3281,
            -84.1698,
            -86.17693,
            -86.82439,
            -88.44304,
            -89.15524,
            -90.96813,
            -91.74508,
            -93.42847,
            -94.14069,
            -95.69459,
            -96.27731,
            -97.31324,
            -98.47867,
            -99.25562,
            -100.0973,
            -101.3922,
            -102.5577,
            -103.6583,
            -104.3706,
            -105.018,
            -106.1834,
            -107.0251,
            -107.4784,
            -108.6438,
            -109.356,
            -109.9387,
            -111.1689,
            -111.4926,
            -111.9458,
            -113.2408,
            -114.1472,
            -114.6004,
            -115.3774,
            -116.0248,
            -116.2838,
            -117.1255,
            -117.9025,
            -118.2909,
            -118.6794,
            -119.2621,
            -119.5859,
            -119.9096,
            -120.2981,
            -120.4923,
            -121.0103,
            -121.2045,
            -121.7225,
            -121.9167,
            -121.9815,
            -121.9815,
            -121.9815,
            -122.111,
            -121.9815,
            -121.9167,
            -121.9815,
            -122.2404,
            -121.9167,
            -121.3988,
            -121.2045,
            -120.816,
            -120.1686,
            -119.9743,
            -119.5859,
            -119.1326,
            -118.4852,
            -118.1615,
            -117.6435,
            -115.5069,
            -112.8523,
            -110.3272,
            -107.9316,
            -105.6655,
            -103.2051,
            -100.939,
            -98.73765,
            -96.47154,
            -94.33492,
            -92.1983,
            -90.12643,
            -87.66608,
            -85.65896,
            -83.58709,
            -81.32098,
            -79.31385,
            -77.17723,
            -75.23486,
            -73.09824,
            -70.76738,
            -68.88975,
            -66.68838,
            -64.55177,
            -62.73887,
            -60.47276,
            -58.2714,
            -56.26427,
            -54.12766,
            -52.12053,
            -50.30764,
            -48.49475,
            -46.81136,
            -44.73949,
            -42.9266,
            -41.2432,
            -39.10658,
            -37.55268,
            -35.54556,
            -33.60317,
            -31.91978,
            -30.04214,
            -28.294,
            -26.41637,
            -24.27975,
            -22.46686,
            -20.2655,
            -18.45261,
            -16.38074,
            -14.69734,
            -12.69022,
            -10.81258,
            -8.999694,
            -7.12206,
            -5.309172,
            -3.496284,
            -1.877634,
            -0.194238,
            0.712206,
            2.848824,
            4.402728,
            6.086124,
            7.704774,
            9.323424,
            10.61834,
            11.78377,
            13.40242,
            14.11463,
            15.66853,
            16.70447,
            17.54617,
            20.20075,
            21.8194,
            23.43805,
            25.25094,
            26.93434,
            28.55299,
            29.9774,
            31.66079,
            33.2147,
            34.83335,
            35.93403,
            37.87641,
            39.23608,
            39.75404,
            41.76117,
            42.40863,
            44.28626,
            45.45169,
            46.68187,
            48.36526,
            49.72493,
            50.76086,
            51.99104,
            53.4802,
            54.51613,
            55.74631,
            56.58801,
            57.75343,
            59.04835,
            60.21378,
            61.18497,
            62.09142,
            63.12735,
            65.26397,
            66.17041,
            67.9833,
            69.01923,
            70.76738,
            71.60908,
            72.83925,
            73.55145,
            75.1701,
            76.07655,
            78.01893,
            78.79588,
            79.76707,
            80.60877,
            81.70945,
            83.52234,
            84.36404,
            85.98269,
            86.75964,
            88.96101,
            89.60847,
            91.42135,
            92.3278,
            94.33492,
            94.98238,
            96.60103,
            97.44273,
            98.21968,
            99.77358,
            100.4858,
            101.198,
            102.6872,
            103.7231,
            104.3706,
            105.795,
            107.0251,
            107.3489,
            108.4495,
            109.874,
            110.3919,
            111.2984,
            111.9458,
            113.3055,
            113.694,
            113.7587,
            114.9889,
            114.9241,
            115.5069,
            115.7658,
            116.2191,
            116.1543,
            116.1543,
            116.1543,
            116.3486,
            116.0248,
            116.0248,
            115.5069,
            114.9889,
            115.3774,
            114.7299,
            114.0825,
            113.694,
            113.4997,
            113.0465,
            112.658,
            111.8163,
            111.2984,
            111.0394,
            110.0035,
            108.3848,
            107.0251,
            106.7662,
            105.6007,
            105.0828,
            104.6943,
            103.9821,
            103.2699,
            102.9461,
            102.4929,
            102.2339,
            99.19087,
            97.18375,
            96.14781,
            94.78815,
            93.36373,
            91.42135,
            89.8027,
            88.83151,
            87.4071,
            84.1698,
            80.99725,
            77.5657,
            74.13417,
            70.63789,
            67.20634,
            63.9043,
            60.60226,
            57.49445,
            54.25715,
            51.27883,
            48.43001,
            45.45169,
            42.47338,
            39.75404,
            36.77573,
            33.86216,
            31.27232,
            28.74722,
            26.09264,
            23.63229,
            21.17194,
            18.97058,
            16.96345,
            14.43836,
            11.58953,
            9.517662,
            8.157996,
            6.539346,
            4.85595,
            3.88476,
            2.395602,
            1.553904,
            -0.064746,
            -4.402728,
            -6.863076,
            -9.258678,
            -11.2658,
            -13.59666,
            -15.79802,
            -18.19363,
            -20.71872,
            -22.79059,
            -24.99196,
            -27.25807,
            -29.45943,
            -31.72554,
            -33.34419,
            -35.54556,
            -37.68217,
            -39.81879,
            -41.89066,
            -44.02728,
            -46.35814,
            -48.10628,
            -50.30764,
            -52.37951,
            -54.51613,
            -56.26427,
            -58.2714,
            -60.14903,
            -62.09142,
            -63.83956,
            -65.39346,
            -67.07686,
            -68.825,
            -70.05518,
            -72.12704,
            -73.35722,
            -74.97587,
            -76.20604,
            -77.88943,
            -79.24911,
            -80.67352,
            -83.3281,
            -84.94675,
            -87.27761,
            -88.31355,
            -88.31355,
            -88.24879,
            -89.15524,
            -90.38541,
            -92.13356,
            -92.97526,
            -94.78815,
            -95.62984,
            -97.119,
            -98.02544,
            -98.54341,
            -99.70884,
            -100.3563,
            -100.939,
            -102.1044,
            -102.4282,
            -103.1404,
            -103.7878,
            -105.0828,
            -105.0828,
            -105.6655,
            -106.6367,
            -107.0899,
            -107.6726,
            -108.0611,
            -108.838,
            -109.097,
            -109.5502,
            -110.0682,
            -110.1977,
            -110.3272,
            -109.9387,
            -109.7445,
            -110.5862,
            -110.7157,
            -110.7157,
            -111.1689,
            -111.1689,
            -111.4926,
            -111.4926,
            -111.5574,
            -111.8163,
            -111.3631,
            -110.9746,
            -110.7157,
            -110.5862,
            -110.1329,
            -110.0682,
            -109.6797,
            -108.9028,
            -108.3201,
            -107.4136,
            -106.5072,
            -105.9892,
            -105.018,
            -103.7878,
            -102.7519,
            -101.5217,
            -99.96783,
            -99.12613,
            -97.119,
            -95.17662,
            -93.42847,
            -92.00407,
            -90.38541,
            -85.78845,
            -83.78133,
            -81.7742,
            -80.28504,
            -79.44334,
            -78.08368,
            -75.55858,
            -73.16298,
            -71.47958
        ]
    }
}